timestamp,accel_x,accel_y,accel_z,gyro_x,gyro_y,gyro_z,mag_x,mag_y,mag_z,EWMA accel_x,EWMA accel_y,EWMA accel_z,EWMA gyro_x,EWMA gyro_y,EWMA gyro_z,EWMA mag_x,EWMA mag_y,EWMA mag_z
7.20E+12,-0.23989868,0.034698486,9.610947,0.001846314,0.002105713,-3.66E-04,,,,#N/A,#N/A,#N/A,#N/A,#N/A,#N/A,#N/A,#N/A,#N/A
7.20E+12,-0.22538757,0.060699463,9.60408,9.31E-04,0.001937866,-3.66E-04,,,,-0.23989868,0.034698486,9.610947,0.001846314,0.002105713,-3.66E-04,0,0,0
7.20E+12,-0.23930359,0.06539917,9.660019,0,0,0,0,0,0,-0.238447569,0.037298584,9.6102603,0.001754761,0.002088928,-0.000366211,0,0,0
7.20E+12,-0.2349701,0.037765503,9.641403,0.001998901,0.001678467,5.04E-04,0,0,0,-0.238533171,0.040108642,9.61523617,0.001579285,0.001880035,-0.00032959,0,0,0
7.20E+12,-0.23840332,0.05911255,9.626801,0.001754761,-3.05E-05,-3.66E-04,0,0,0,-0.238176864,0.039874328,9.617852853,0.001621246,0.001859879,-0.000246277,0,0,0
7.20E+12,-0.2519989,0.07472229,9.565765,9.31E-04,-3.05E-05,-3.66E-04,0,0,0,-0.23819951,0.041798151,9.618747668,0.001634598,0.001670839,-0.00025827,0,0,0
7.20E+12,-0.2443695,0.07949829,9.637817,9.31E-04,2.44E-04,-6.41E-04,-13.685608,19.53888,-46.463013,-0.239579449,0.045090565,9.613449401,0.001564217,0.001500703,-0.000269064,0,0,0
7.20E+12,-0.23831177,0.07925415,9.627899,6.26E-04,4.43E-04,-0.001434326,-13.685608,19.53888,-46.463013,-0.240058454,0.048531337,9.615886161,0.001500874,0.001375047,-0.000306245,-1.3685608,1.953888,-4.6463013
7.20E+12,-0.23078918,0.06869507,9.665909,-1.37E-04,-0.00138855,-0.001144409,-13.685608,19.53888,-46.463013,-0.239883785,0.051603618,9.617087445,0.001413347,0.001281793,-0.000419053,-2.60026552,3.7123872,-8.82797247
7.20E+12,-0.23072815,0.056549072,9.673019,-1.37E-04,-0.001815796,-7.17E-04,-13.685608,19.53888,-46.463013,-0.238974325,0.053312764,9.6219696,0.00125828,0.001014759,-0.000491589,-3.708799768,5.29503648,-12.59147652
7.20E+12,-0.2168274,0.059188843,9.616623,2.44E-04,-7.17E-04,-0.001815796,-13.749695,19.450378,-46.621704,-0.238149707,0.053636394,9.62707454,0.001118719,0.000731703,-0.000514146,-4.706480591,6.719420832,-15.97863017
7.20E+12,-0.23487854,0.082611084,9.60881,9.31E-04,-4.43E-04,-0.002090454,-13.749695,19.450378,-46.621704,-0.236017477,0.054191639,9.626029386,0.001031261,0.000586817,-0.000644311,-5.610802032,7.992516549,-19.04293755
7.20E+12,-0.23826599,0.061553955,9.630524,0.001358032,-0.001098633,-0.001434326,-13.749695,19.450378,-46.621704,-0.235903583,0.057033584,9.624307448,0.001021213,0.000483884,-0.000788925,-6.424691329,9.138302694,-21.8008142
7.20E+12,-0.22479248,0.043029785,9.632156,0.002426148,-0.001541138,-0.001434326,-13.749695,19.450378,-46.621704,-0.236139824,0.057485621,9.624929103,0.001054895,0.000325633,-0.000853465,-7.157191696,10.16951022,-24.28290318
7.20E+12,-0.22659302,0.07209778,9.574829,0.002624512,-0.001739502,-9.92E-04,-14.347839,18.338013,-48.512268,-0.235005089,0.056040037,9.625651793,0.001192021,0.000138956,-0.000911551,-7.816442026,11.097597,-26.51678326
7.20E+12,-0.24403381,0.10421753,9.546799,0.001480103,-0.001617432,1.53E-04,-14.347839,18.338013,-48.512268,-0.234163882,0.057645812,9.620569513,0.00133527,-4.89E-05,-0.000919578,-8.469581724,11.8216386,-28.71633173
7.20E+12,-0.26716614,0.084625244,9.615997,0.001464844,-0.002716065,-3.66E-04,-14.347839,18.338013,-48.512268,-0.235150875,0.062302983,9.613192462,0.001349753,-0.000205744,-0.000812362,-9.057407451,12.47327604,-30.69592536
7.20E+12,-0.24351501,0.06617737,9.680679,0.001998901,-0.002120972,-8.70E-04,-14.347839,18.338013,-48.512268,-0.238352402,0.064535209,9.613472916,0.001361262,-0.000456776,-0.000767747,-9.586450606,13.05974974,-32.47755962
7.20E+12,-0.22183228,0.06524658,9.678833,0.001998901,-0.001693726,-3.66E-04,-12.484741,18.338013,-47.302246,-0.238868662,0.064699425,9.620193524,0.001425026,-0.000623196,-0.000777947,-10.06258945,13.58757606,-34.08103046
7.20E+12,-0.23286438,0.06954956,9.664658,0.001419067,-0.002166748,-3.66E-04,-12.484741,18.338013,-47.302246,-0.237165024,0.064754141,9.626057472,0.001482414,-0.000730249,-0.000736774,-10.3048046,14.06261976,-35.40315202
7.20E+12,-0.2400055,0.065078735,9.646484,9.31E-04,-9.77E-04,-0.001556397,-12.484741,18.338013,-47.302246,-0.23673496,0.065233683,9.629917525,0.001476079,-0.000873899,-0.000699717,-10.52279824,14.49015908,-36.59306141
7.20E+12,-0.23857117,0.08099365,9.64859,9.31E-04,-0.001358032,-0.001831055,-12.484741,18.338013,-47.302246,-0.237062014,0.065218188,9.631574172,0.00142155,-0.000884165,-0.000785385,-10.71899252,14.87494447,-37.66397987
7.20E+12,-0.22109985,0.071762085,9.621048,2.29E-04,-0.002166748,-0.001434326,-12.535095,18.338013,-46.9635,-0.237212929,0.066795734,9.633275755,0.001372473,-0.000931552,-0.000889952,-10.89556737,15.22125133,-38.62780649
7.20E+12,-0.2381897,0.07551575,9.617065,5.65E-04,-0.001464844,-0.001434326,-12.535095,18.338013,-46.9635,-0.235601621,0.067292369,9.632052979,0.001258114,-0.001055071,-0.00094439,-11.05952013,15.53292749,-39.46137584
7.20E+12,-0.25135803,0.07424927,9.6783905,0.001663208,-0.001846314,6.10E-05,-12.535095,18.338013,-46.9635,-0.235860429,0.068114707,9.630554181,0.00118876,-0.001096049,-0.000993383,-11.20707762,15.81343604,-40.21158825
7.20E+12,-0.2590027,0.05055237,9.697617,0.001998901,-0.001464844,-7.17E-04,-12.535095,18.338013,-46.9635,-0.237410189,0.068728164,9.635337813,0.001236205,-0.001171075,-0.000887941,-11.33987935,16.06589374,-40.88677943
7.20E+12,-0.24349976,0.035232544,9.601517,4.58E-04,-0.001098633,-0.001434326,-12.800598,18.481445,-45.487976,-0.23956944,0.066910584,9.641565732,0.001312475,-0.001200452,-0.000870864,-11.45940092,16.29310567,-41.49445149
7.20E+12,-0.27355957,0.0630188,9.644226,-9.61E-04,-0.001098633,-6.10E-04,-12.800598,18.481445,-45.487976,-0.239962472,0.06374278,9.637560859,0.001227004,-0.00119027,-0.00092721,-11.59352063,16.5119396,-41.89380394
7.20E+12,-0.23661804,0.057510376,9.669128,-0.001205444,-0.001098633,-0.001205444,-12.800598,18.481445,-45.487976,-0.243322182,0.063670382,9.638227373,0.001008173,-0.001181106,-0.000895524,-11.71422836,16.70889014,-42.25322114
7.20E+12,-0.20614624,0.086135864,9.658569,5.19E-04,-0.001968384,-0.001434326,-12.800598,18.481445,-45.487976,-0.242651768,0.063054382,9.641317436,0.000786811,-0.001172859,-0.000926516,-11.82286533,16.88614563,-42.57669663
7.20E+12,-0.22875977,0.03363037,9.697952,3.05E-05,-0.002166748,-0.001434326,-12.65564,19.195557,-48.139954,-0.239001215,0.06536253,9.643042592,0.00076001,-0.001252411,-0.000977297,-11.9206386,17.04567556,-42.86782457
7.20E+12,-0.25003052,0.049850464,9.577713,-1.37E-04,-0.002166748,-0.00227356,-12.65564,19.195557,-48.139954,-0.237977071,0.062189314,9.648533533,0.000687061,-0.001343845,-0.001023,-11.99413874,17.26066371,-43.39503751
7.20E+12,-0.25863647,0.05656433,9.603912,7.93E-04,-0.002166748,-0.002502441,-12.65564,19.195557,-48.139954,-0.239182416,0.060955429,9.64145148,0.000604622,-0.001426135,-0.001148056,-12.06028886,17.45415304,-43.86952916
7.20E+12,-0.23490906,0.07009888,9.659576,9.31E-04,-0.003143311,-5.65E-04,-12.65564,19.195557,-48.139954,-0.241127821,0.060516319,9.637697532,0.000623505,-0.001500197,-0.001283494,-12.11982398,17.62829343,-44.29657164
7.20E+12,-0.2467804,0.0642395,9.656494,0.001922607,-0.003234863,-0.001358032,-12.693787,18.937683,-47.9599,-0.240505945,0.061474575,9.639885378,0.000654233,-0.001664508,-0.001211603,-12.17340558,17.78501979,-44.68090988
7.20E+12,-0.23104858,0.08728027,9.672531,9.77E-04,-0.002227783,-0.001434326,-12.693787,18.937683,-47.9599,-0.24113339,0.061751068,9.641546241,0.000781071,-0.001821544,-0.001226246,-12.22544372,17.90028611,-45.00880889
7.20E+12,-0.2263031,0.016815186,9.63739,-1.22E-04,-0.002166748,-0.001434326,-12.693787,18.937683,-47.9599,-0.240124909,0.064303988,9.644644717,0.00080062,-0.001862168,-0.001247054,-12.27227805,18.0040258,-45.303918
7.20E+12,-0.25424194,0.051651,9.598663,8.54E-04,-0.002166748,-0.001434326,-12.910461,17.99469,-47.221375,-0.238742728,0.059555108,9.643919245,0.000708351,-0.001892626,-0.001265781,-12.31442894,18.09739152,-45.5695162
7.20E+12,-0.24395752,0.04408264,9.659225,-1.07E-04,-0.001144409,-3.66E-04,-12.910461,17.99469,-47.221375,-0.24029265,0.058764697,9.63939362,0.000722965,-0.001920038,-0.001282635,-12.37403215,18.08712137,-45.73470208
7.20E+12,-0.22703552,0.109069824,9.630875,8.70E-04,-0.002227783,-3.05E-04,-12.910461,17.99469,-47.221375,-0.240659137,0.057296491,9.641376758,0.000639987,-0.001842475,-0.001190993,-12.42767503,18.07787823,-45.88336937
7.20E+12,-0.24047852,0.07687378,9.634796,9.16E-05,-0.003234863,6.26E-04,-12.910461,17.99469,-47.221375,-0.239296775,0.062473824,9.640326583,0.000662964,-0.001881006,-0.001102411,-12.47595363,18.06955941,-46.01716994
7.20E+12,-0.23977661,0.06652832,9.57457,0.002960205,-0.003143311,-3.66E-04,-13.171387,17.99469,-46.966553,-0.239414949,0.06391382,9.639773524,0.000605823,-0.002016392,-0.000929609,-12.51940437,18.06207247,-46.13759044
7.20E+12,-0.21980286,0.08453369,9.6465,0.001876831,-0.002166748,-3.66E-04,-13.171387,17.99469,-46.966553,-0.239451116,0.06417527,9.633253172,0.000841261,-0.002129083,-0.000873269,-12.58460263,18.05533422,-46.2204867
7.20E+12,-0.26298523,0.049728394,9.643509,8.54E-04,-0.002166748,-4.27E-04,-13.171387,17.99469,-46.966553,-0.23748629,0.066211112,9.634577855,0.000944818,-0.00213285,-0.000822563,-12.64328107,18.0492698,-46.29509333
7.20E+12,-0.24058533,0.0925293,9.646622,-3.20E-04,-0.002166748,-0.001251221,-13.171387,17.99469,-46.966553,-0.240036184,0.06456284,9.635470969,0.000935785,-0.00213624,-0.000783032,-12.69609166,18.04381182,-46.3622393
7.20E+12,-0.22221375,0.06858826,9.670563,-0.001205444,-0.001968384,-3.66E-04,-13.465881,18.482971,-46.870422,-0.240091099,0.067359486,9.636586072,0.000810163,-0.002139291,-0.000829851,-12.74362119,18.03889964,-46.42267067
7.20E+12,-0.2388916,0.07858276,9.643158,-0.001205444,-8.85E-04,-3.66E-04,-13.465881,18.482971,-46.870422,-0.238303364,0.067482364,9.639983765,0.000608603,-0.0021222,-0.000783487,-12.81584718,18.08330677,-46.4674458
7.20E+12,-0.26463318,0.036758423,9.627457,-9.61E-04,-2.90E-04,-6.10E-04,-13.465881,18.482971,-46.870422,-0.238362187,0.068592403,9.640301189,0.000427198,-0.001998481,-0.000741759,-12.88085056,18.1232732,-46.50774342
7.20E+12,-0.22039795,0.07318115,9.591644,-1.37E-04,-0.001098633,-0.001434326,-13.465881,18.482971,-46.870422,-0.240989287,0.065409005,9.63901677,0.000288348,-0.001827624,-0.000728618,-12.9393536,18.15924298,-46.54401128
7.20E+12,-0.24481201,0.0798645,9.613541,9.16E-05,-0.001342773,-0.001434326,-13.830566,19.233704,-46.57898,-0.238930153,0.06618622,9.634279493,0.00024578,-0.001754725,-0.000799189,-12.99200634,18.19161578,-46.57665235
7.20E+12,-0.2348938,0.07115173,9.630981,5.95E-04,-0.002166748,-0.001434326,-13.830566,19.233704,-46.57898,-0.239518339,0.067554048,9.632205643,0.000230357,-0.00171353,-0.000862703,-13.07586231,18.2958246,-46.57688511
7.20E+12,-0.22393799,0.060150146,9.606644,-1.37E-04,-0.002166748,-0.001785278,-13.830566,19.233704,-46.57898,-0.239055885,0.067913816,9.632083179,0.000266831,-0.001758852,-0.000919865,-13.15133268,18.38961254,-46.5770946
7.20E+12,-0.25213623,0.06272888,9.598068,-1.37E-04,-0.002166748,-0.002120972,-13.830566,19.233704,-46.57898,-0.237544095,0.067137449,9.629539261,0.000226415,-0.001799642,-0.001006406,-13.21925601,18.47402169,-46.57728314
7.20E+12,-0.25767517,0.07594299,9.572281,2.59E-04,-0.002578735,-0.001434326,-12.998962,18.165588,-46.463013,-0.239003309,0.066696592,9.626392135,0.00019004,-0.001836352,-0.001117863,-13.28038701,18.54998992,-46.57745283
7.20E+12,-0.2712555,0.08467102,9.600662,5.34E-04,-0.002456665,-0.001037598,-12.998962,18.165588,-46.463013,-0.240870495,0.067621232,9.620981022,0.000196976,-0.00191059,-0.001149509,-13.25224451,18.51154973,-46.56600885
7.20E+12,-0.22773743,0.038238525,9.599747,-5.34E-04,-0.001098633,-7.48E-04,-12.998962,18.165588,-46.463013,-0.243908995,0.069326211,9.618949119,0.000230684,-0.001965198,-0.001138318,-13.22691626,18.47695355,-46.55570926
7.20E+12,-0.2340393,0.030731201,9.61821,-2.59E-04,-0.001586914,-9.46E-04,-12.998962,18.165588,-46.463013,-0.242291839,0.066217442,9.617028907,0.00015421,-0.001878541,-0.001099254,-13.20412083,18.445817,-46.54643964
7.20E+12,-0.2534027,0.035324097,9.607712,9.31E-04,-0.002166748,-3.66E-04,-13.427734,18.226624,-46.76056,-0.241466585,0.062668818,9.617147017,0.000112849,-0.001849379,-0.001083933,-13.18360495,18.4177941,-46.53809697
7.20E+12,-0.2462616,0.056167603,9.596054,3.97E-04,-0.002700806,-8.85E-04,-13.427734,18.226624,-46.76056,-0.242660196,0.059934346,9.616203515,0.000194643,-0.001881116,-0.001012161,-13.20801785,18.39867709,-46.56034327
7.20E+12,-0.25341797,0.06387329,9.64679,9.77E-04,-0.002685547,-0.001434326,-13.427734,18.226624,-46.76056,-0.243020337,0.059557672,9.614188564,0.000214852,-0.001963085,-0.000999446,-13.22998947,18.38147178,-46.58036495
7.20E+12,-0.25550842,0.056640625,9.604294,0.002532959,-0.00163269,-0.001968384,-13.427734,18.226624,-46.76056,-0.2440601,0.059989233,9.617448707,0.000291023,-0.002035331,-0.001042934,-13.24976392,18.365987,-46.59838445
7.20E+12,-0.25497437,0.06283569,9.595535,0.002487183,-5.34E-04,-0.001358032,-13.876343,18.533325,-47.23816,-0.245204932,0.059654373,9.616133236,0.000515216,-0.001995067,-0.001135479,-13.26756093,18.3520507,-46.61460201
7.20E+12,-0.2437439,0.078933716,9.662369,0.001998901,-6.71E-04,-3.66E-04,-13.876343,18.533325,-47.23816,-0.246181876,0.059972504,9.614073413,0.000712413,-0.001848966,-0.001157734,-13.32843914,18.37017813,-46.67695781
7.20E+12,-0.2781372,0.06555176,9.685608,6.71E-04,-0.001098633,-0.001022339,-13.876343,18.533325,-47.23816,-0.245938078,0.061868626,9.618902972,0.000841062,-0.001731208,-0.001078582,-13.38322952,18.38649282,-46.73307803
7.20E+12,-0.2801361,0.066986084,9.626572,5.34E-04,-0.001098633,-0.002105713,-13.876343,18.533325,-47.23816,-0.24915799,0.062236939,9.625573474,0.000824094,-0.00166795,-0.001072958,-13.43254087,18.40117604,-46.78358622
7.20E+12,-0.2597351,0.053771973,9.599701,9.31E-04,-0.001815796,-0.001785278,-13.342285,18.852234,-47.1344,-0.252255801,0.062711853,9.625673327,0.000795091,-0.001611019,-0.001176233,-13.47692108,18.41439093,-46.8290436
7.20E+12,-0.25291443,0.0539093,9.590027,2.44E-04,-0.001495361,-0.002105713,-13.342285,18.852234,-47.1344,-0.253003731,0.061817865,9.623076094,0.00080866,-0.001631496,-0.001237138,-13.46345747,18.45817524,-46.85957924
7.20E+12,-0.24002075,0.07823181,9.626389,0.001312256,-0.002563477,-0.001037598,-13.342285,18.852234,-47.1344,-0.252994801,0.061027009,9.619771185,0.000752208,-0.001617883,-0.001323995,-13.45134023,18.49758112,-46.88706132
7.20E+12,-0.20329285,0.07640076,9.631165,0.001220703,-0.003234863,-3.66E-04,-13.342285,18.852234,-47.1344,-0.251697396,0.062747489,9.620432966,0.000808213,-0.001712442,-0.001295356,-13.4404347,18.5330464,-46.91179518
7.20E+12,-0.22961426,0.07714844,9.620224,1.22E-04,-0.002441406,-3.66E-04,-13.417053,18.339539,-47.491455,-0.246856941,0.064112816,9.62150617,0.000849462,-0.001864684,-0.001202441,-13.43061973,18.56496516,-46.93405567
7.20E+12,-0.21737671,0.08583069,9.644791,6.87E-04,-0.002166748,-0.001190186,-13.417053,18.339539,-47.491455,-0.245132673,0.065416378,9.621377953,0.000776723,-0.001922357,-0.001118818,-13.42926306,18.54242255,-46.9897956
7.20E+12,-0.24079895,0.08227539,9.56955,6.10E-05,-0.002166748,-5.65E-04,-13.417053,18.339539,-47.491455,-0.242357077,0.06745781,9.623719257,0.000767715,-0.001946796,-0.001125955,-13.42804205,18.52213419,-47.03996154
7.20E+12,-0.22784424,0.05267334,9.600143,6.71E-04,-0.001358032,-3.66E-04,-13.417053,18.339539,-47.491455,-0.242201264,0.068939568,9.618302332,0.000697047,-0.001968791,-0.001069817,-13.42694315,18.50387467,-47.08511089
7.20E+12,-0.2507019,0.086868286,9.654724,3.05E-05,-0.001098633,-0.002151489,-13.748169,18.501282,-47.895813,-0.240765562,0.067312945,9.616486399,0.000694481,-0.001907715,-0.000999456,-13.42595413,18.48744111,-47.1257453
7.20E+12,-0.23536682,0.06266785,9.539505,7.93E-04,-0.001098633,-0.001556397,-13.748169,18.501282,-47.895813,-0.241759196,0.069268479,9.620310159,0.000628085,-0.001826807,-0.00111466,-13.45817562,18.4888252,-47.20275207
7.20E+12,-0.24186707,0.070114136,9.5646515,9.31E-04,-0.001098633,-0.001434326,-13.748169,18.501282,-47.895813,-0.241119958,0.068608416,9.612229643,0.000644622,-0.001753989,-0.001158833,-13.48717496,18.49007088,-47.27205816
7.20E+12,-0.23364258,0.062072754,9.574844,0.001907349,-0.002090454,-0.001434326,-13.748169,18.501282,-47.895813,-0.241194669,0.068758988,9.607471829,0.000673238,-0.001688454,-0.001186383,-13.51327436,18.49119199,-47.33443364
7.20E+12,-0.23098755,0.053009033,9.637131,9.77E-04,-0.002166748,-0.001434326,-14.030457,19.53888,-47.80426,-0.24043946,0.068090365,9.604209046,0.000796649,-0.001728654,-0.001211177,-13.53676383,18.49220099,-47.39057158
7.20E+12,-0.22601318,0.06147766,9.580444,0.001876831,-0.002166748,-0.001434326,-14.030457,19.53888,-47.80426,-0.239494269,0.066582232,9.607501241,0.000814641,-0.001772463,-0.001233492,-13.58613314,18.59686889,-47.43194042
7.20E+12,-0.23344421,0.07823181,9.574387,9.31E-04,-0.002166748,-0.001434326,-14.030457,19.53888,-47.80426,-0.23814616,0.066071774,9.604795517,0.00092086,-0.001811892,-0.001253575,-13.63056553,18.69107,-47.46917238
7.20E+12,-0.25775146,0.08068848,9.693863,9.16E-04,-0.001144409,7.02E-04,-14.115906,19.282532,-47.720337,-0.237675965,0.067287778,9.601754665,0.000921852,-0.001847377,-0.00127165,-13.67055468,18.775851,-47.50268114
7.20E+12,-0.2225647,0.08207703,9.682526,-4.58E-05,-0.004302979,6.56E-04,-14.115906,19.282532,-47.720337,-0.239683515,0.068627848,9.610965499,0.00092122,-0.001777081,-0.001074295,-13.71508981,18.8265191,-47.52444673
7.20E+12,-0.21386719,0.0665741,9.6488495,0.001922607,-0.004241943,-2.90E-04,-14.115906,19.282532,-47.720337,-0.237971633,0.069972766,9.618121549,0.00082452,-0.00202967,-0.000901253,-13.75517143,18.87212039,-47.54403576
7.20E+12,-0.2917633,0.04269409,9.646271,9.31E-04,-0.003326416,6.26E-04,-14.115906,19.282532,-47.720337,-0.235561189,0.0696329,9.621194344,0.000934329,-0.002250898,-0.000840119,-13.79124489,18.91316155,-47.56166588
7.20E+12,-0.2738037,0.05279541,9.643646,9.31E-04,-0.004272461,-3.66E-04,-14.292908,18.754578,-47.373962,-0.2411814,0.066939019,9.62370201,0.000933975,-0.002358449,-0.000693546,-13.823711,18.9500986,-47.57753299
7.20E+12,-0.28408813,0.083496094,9.675522,9.31E-04,-0.003234863,-3.66E-04,-14.292908,18.754578,-47.373962,-0.24444363,0.065524658,9.625696409,0.000933656,-0.002549851,-0.000660813,-13.8706307,18.93054654,-47.55717589
7.20E+12,-0.24995422,0.06286621,9.6258545,9.31E-04,-0.003067017,-3.66E-04,-14.292908,18.754578,-47.373962,-0.24840808,0.067321801,9.630678968,0.000933369,-0.002618352,-0.000631352,-13.91285843,18.91294968,-47.5388545
7.20E+12,-0.24269104,0.06430054,9.615662,0.001113892,-0.002166748,-1.68E-04,-14.292908,18.754578,-47.373962,-0.248562694,0.066876242,9.630196521,0.000933111,-0.002663218,-0.000604838,-13.95086338,18.89711252,-47.52236525
7.20E+12,-0.25367737,0.04473877,9.619858,0.00177002,-0.001953125,4.88E-04,-14.373779,18.508911,-47.1344,-0.247975529,0.066618672,9.628743069,0.000951189,-0.002613571,-0.000561139,-13.98506785,18.88285906,-47.50752493
7.20E+12,-0.2642212,0.03804016,9.656601,0.001373291,-0.001327515,-5.80E-04,-14.373779,18.508911,-47.1344,-0.248545713,0.064430682,9.627854562,0.001033072,-0.002547527,-0.000456197,-14.02393896,18.84546426,-47.47021243
7.20E+12,-0.28353882,0.048339844,9.604477,0.002853394,-0.002166748,-0.001220703,-14.373779,18.508911,-47.1344,-0.250113262,0.06179163,9.630729206,0.001067094,-0.002425525,-0.000468561,-14.05892297,18.81180893,-47.43663119
7.20E+12,-0.27337646,0.046310425,9.633041,0.001998901,-0.002471924,-3.66E-04,-14.373779,18.508911,-47.1344,-0.253455817,0.060446451,9.628103985,0.001245724,-0.002399648,-0.000543775,-14.09040857,18.78151914,-47.40640807
7.20E+12,-0.25245667,0.045028687,9.632202,0.002304077,-0.003555298,-3.66E-04,-13.885498,18.411255,-46.847534,-0.255447882,0.059032849,9.628597687,0.001321041,-0.002406875,-0.000526019,-14.11874561,18.75425832,-47.37920726
7.20E+12,-0.2447052,0.05026245,9.58197,0.003067017,-0.003967285,-3.66E-04,-13.885498,18.411255,-46.847534,-0.25514876,0.057632432,9.628958118,0.001419345,-0.002521718,-0.000510038,-14.09542085,18.71995799,-47.32603994
7.20E+12,-0.2615204,0.07574463,9.579758,0.003433228,-0.002868652,-3.66E-04,-13.885498,18.411255,-46.847534,-0.254104404,0.056895434,9.624259306,0.001584112,-0.002666274,-0.000495655,-14.07442857,18.68908769,-47.27818934
7.20E+12,-0.24238586,0.06617737,9.579178,0.003753662,-0.002166748,-7.32E-04,-13.885498,18.411255,-46.847534,-0.254846004,0.058780354,9.619809176,0.001769024,-0.002686512,-0.000482711,-14.05553551,18.66130442,-47.23512381
7.20E+12,-0.2315216,0.06074524,9.619156,0.002700806,-0.002166748,-7.02E-04,-13.616943,19.862366,-46.53015,-0.25359999,0.059520055,9.615746058,0.001967488,-0.002634536,-0.000507682,-14.03853176,18.63629948,-47.19636483
7.20E+12,-0.2394867,0.07470703,9.662247,6.56E-04,-0.002624512,2.59E-04,-13.616943,19.862366,-46.53015,-0.251392151,0.059642574,9.616087052,0.002040819,-0.002587757,-0.000527104,-13.99637288,18.75890613,-47.12974335
7.20E+12,-0.2277832,0.080947876,9.620911,1.98E-04,-0.003707886,-8.24E-04,-13.616943,19.862366,-46.53015,-0.250201606,0.061149019,9.620703047,0.00190235,-0.002591432,-0.000448454,-13.95842989,18.86925212,-47.06978401
7.20E+12,-0.24880981,0.06890869,9.712311,0.001495361,-0.004302979,-0.001922607,-13.616943,19.862366,-46.53015,-0.247959765,0.063128905,9.620723842,0.001731952,-0.002703078,-0.000486006,-13.9242812,18.96856351,-47.01582061
7.20E+12,-0.26153564,0.0683136,9.666687,9.31E-04,-0.005340576,-9.46E-04,-13.685608,20.91217,-46.463013,-0.24804477,0.063706884,9.629882558,0.001708293,-0.002863068,-0.000629666,-13.89354738,19.05794376,-46.96725355
7.20E+12,-0.23553467,0.043914795,9.645325,-9.16E-05,-0.004928589,7.02E-04,-13.685608,20.91217,-46.463013,-0.249393857,0.064167555,9.633563002,0.001630542,-0.003110819,-0.000661304,-13.87275345,19.24336638,-46.91682949
7.20E+12,-0.2427063,0.015548706,9.638809,-0.001739502,-0.003768921,7.02E-04,-13.685608,20.91217,-46.463013,-0.248007938,0.062142279,9.634739202,0.001458332,-0.003292596,-0.000524983,-13.8540389,19.41024674,-46.87144785
7.20E+12,-0.23144531,0.057373047,9.62262,-0.001678467,-0.004302979,7.02E-04,-13.685608,20.91217,-46.463013,-0.247477774,0.057482922,9.635146182,0.001138549,-0.003340228,-0.000402294,-13.83719581,19.56043907,-46.83060436
7.20E+12,-0.25804138,0.085357666,9.633347,-0.001205444,-0.004302979,7.02E-04,-13.685608,19.815063,-47.746277,-0.245874528,0.057471934,9.633893564,0.000856847,-0.003436503,-0.000291874,-13.82203703,19.69561216,-46.79384522
7.20E+12,-0.28399658,0.061462402,9.635651,-0.001861572,-0.004302979,6.10E-05,-13.685608,19.815063,-47.746277,-0.247091213,0.060260508,9.633838907,0.000650618,-0.003523151,-0.000192497,-13.80839413,19.70755725,-46.8890884
7.20E+12,-0.2599945,0.05303955,9.6651,-0.001617432,-0.004974365,3.05E-04,-13.685608,19.815063,-47.746277,-0.25078175,0.060380697,9.634020117,0.000399399,-0.003601134,-0.000167143,-13.79611551,19.71830782,-46.97480726
7.20E+12,-0.24191284,0.044387817,9.675446,-0.001205444,-0.004089356,7.02E-04,-13.685608,19.815063,-47.746277,-0.251703025,0.059646582,9.637128105,0.000197716,-0.003738457,-0.000119911,-13.78506476,19.72798334,-47.05195424
7.20E+12,-0.22531128,0.057662964,9.64888,-0.001907349,-0.003234863,1.53E-05,-13.458252,18.284607,-47.584534,-0.250724006,0.058120706,9.640959894,5.74E-05,-0.003773547,-3.77E-05,-13.77511909,19.73669131,-47.12138651
7.20E+12,-0.24627686,0.07145691,9.641235,-0.001541138,-0.003234863,-0.001098633,-13.458252,18.284607,-47.584534,-0.248182734,0.058074932,9.641751905,-0.000139075,-0.003719678,-3.24E-05,-13.74343238,19.59148287,-47.16770126
7.20E+12,-0.22853088,0.05747986,9.585129,3.20E-04,-0.004013062,-0.001434326,-13.458252,18.284607,-47.584534,-0.247992146,0.059413129,9.641700214,-0.000279281,-0.003671197,-0.000139051,-13.71491434,19.46079529,-47.20938453
7.20E+12,-0.25183105,0.10151672,9.554733,1.22E-04,-0.004302979,-0.001434326,-13.458252,18.284607,-47.584534,-0.24604602,0.059219802,9.636043093,-0.00021931,-0.003705383,-0.000268579,-13.68924811,19.34317646,-47.24689948
7.20E+12,-0.2476654,0.058502197,9.579468,-1.37E-04,-0.005126953,-0.001434326,-13.342285,17.822266,-47.1344,-0.246624523,0.063449494,9.627912084,-0.000185172,-0.003765143,-0.000385153,-13.6661485,19.23731951,-47.28066293
7.20E+12,-0.25013733,0.08276367,9.630798,-1.37E-04,-0.004592896,-6.41E-04,-13.342285,17.822266,-47.1344,-0.24672861,0.062954765,9.623067675,-0.000180387,-0.003901324,-0.000490071,-13.63376215,19.09581416,-47.26603664
7.20E+12,-0.23225403,0.06500244,9.614029,-9.92E-04,-0.005157471,-0.001205444,-13.342285,17.822266,-47.1344,-0.247069482,0.064935655,9.623840708,-0.000176081,-0.003970481,-0.000505151,-13.60461443,18.96845935,-47.25287298
7.20E+12,-0.27355957,0.059173584,9.655838,-0.001205444,-0.005371094,-5.34E-04,-13.342285,17.822266,-47.1344,-0.245587937,0.064942334,9.622859537,-0.000257655,-0.00408918,-0.00057518,-13.57838149,18.85384001,-47.24102568
7.20E+12,-0.31878662,0.040130615,9.612579,-0.002136231,-0.003540039,-3.66E-04,-13.710022,18.188477,-47.253418,-0.2483851,0.064365459,9.626157383,-0.000352434,-0.004217371,-0.000571068,-13.55477184,18.75068261,-47.23036311
7.20E+12,-0.2236023,0.09425354,9.638794,-0.00227356,-0.003234863,-0.001312256,-13.710022,18.188477,-47.253418,-0.255425252,0.061941974,9.624799545,-0.000530814,-0.004149638,-0.000550582,-13.57029686,18.69446205,-47.2326686
7.20E+12,-0.21820068,0.056259155,9.660492,-0.001312256,-0.004211426,-0.00239563,-13.710022,18.188477,-47.253418,-0.252242957,0.065173131,9.626198991,-0.000705089,-0.004058161,-0.000626749,-13.58426937,18.64386354,-47.23474354
7.20E+12,-0.22337341,0.07232666,9.574844,-0.001205444,-0.002456665,2.90E-04,-13.710022,18.188477,-47.253418,-0.248838729,0.064281733,9.629628291,-0.000765805,-0.004073487,-0.000803637,-13.59684463,18.59832489,-47.23661099
7.20E+12,-0.23527527,0.07110596,9.640564,-1.98E-04,-0.001159668,-3.05E-04,-14.23645,18.714905,-47.42279,-0.246292197,0.065086226,9.624149862,-0.000809769,-0.003911805,-0.000694282,-13.60816237,18.5573401,-47.23829169
7.20E+12,-0.27093506,0.06159973,9.650955,-1.37E-04,-0.003204346,-3.66E-04,-14.23645,18.714905,-47.42279,-0.245190505,0.065688199,9.625791276,-0.000748629,-0.003636591,-0.000655371,-13.67099113,18.57309659,-47.25674152
7.20E+12,-0.22865295,0.072021484,9.578659,-1.22E-04,-0.003234863,7.02E-04,-14.23645,18.714905,-47.42279,-0.24776496,0.065279352,9.628307648,-0.000687499,-0.003593367,-0.000626455,-13.72753702,18.58727743,-47.27334637
7.20E+12,-0.23831177,0.1002655,9.612808,0.003128052,-0.003372192,-0.00138855,-14.373779,18.852234,-47.468567,-0.245853759,0.065953566,9.623342784,-0.000630956,-0.003557516,-0.000493619,-13.77842832,18.60004019,-47.28829073
7.20E+12,-0.24734497,0.06414795,9.651184,0.003128052,-0.003372192,-0.00138855,-14.373779,18.852234,-47.468567,-0.24509956,0.069384759,9.622289305,-0.000255055,-0.003538984,-0.000583112,-13.83796339,18.62525957,-47.30631836
7.20E+12,-0.274292,0.08847046,9.713806,9.46E-04,-0.007507324,-3.66E-04,-14.373779,18.852234,-47.468567,-0.245324101,0.068861078,9.625178775,8.33E-05,-0.003522305,-0.000663656,-13.89154495,18.64795701,-47.32254322
7.20E+12,-0.27337646,0.054382324,9.664932,-0.001113892,-0.005279541,-0.00239563,-14.373779,18.852234,-47.468567,-0.248220891,0.070822016,9.634041497,0.000169535,-0.003920807,-0.000633912,-13.93976835,18.66838471,-47.3371456
7.20E+12,-0.22053528,0.06970215,9.601776,2.44E-04,-0.004180908,-0.001296997,-13.972473,18.450928,-48.64502,-0.250736448,0.069178047,9.637130548,4.12E-05,-0.00405668,-0.000810083,-13.98316942,18.68676964,-47.35028774
7.20E+12,-0.21685791,0.06274414,9.653351,0.002761841,-0.003387451,-2.14E-04,-13.972473,18.450928,-48.64502,-0.247716331,0.069230457,9.633595093,6.15E-05,-0.004069103,-0.000858775,-13.98209978,18.66318548,-47.47976097
7.20E+12,-0.22224426,0.07167053,9.6315,9.31E-04,-0.004302979,5.34E-04,-13.972473,18.450928,-48.64502,-0.244630489,0.068581826,9.635570684,0.000331522,-0.004000938,-0.00079426,-13.9811371,18.64195973,-47.59628687
7.20E+12,-0.23971558,0.080566406,9.690201,0.001312256,-0.004119873,-3.66E-04,-13.972473,18.450928,-48.64502,-0.242391866,0.068890696,9.635163615,0.000391449,-0.004031142,-0.000661428,-13.98027069,18.62285656,-47.70116018
7.20E+12,-0.24633789,0.05441284,9.61113,0.00289917,-0.00340271,-5.19E-04,-12.615967,19.02771,-47.494507,-0.242124238,0.070058267,9.640667354,0.000483529,-0.004040015,-0.000631906,-13.97949092,18.6056637,-47.79554616
7.20E+12,-0.23924255,0.055648804,9.6073,0.001998901,-0.004058838,-0.001174927,-12.615967,19.02771,-47.494507,-0.242545603,0.068493724,9.637713618,0.000725093,-0.003976284,-0.000620595,-13.84313853,18.64786833,-47.76544225
7.20E+12,-0.25534058,0.06611633,9.631577,0.001998901,-0.003234863,-6.41E-04,-12.615967,19.02771,-47.494507,-0.242215298,0.067209232,9.634672256,0.000852474,-0.00398454,-0.000676029,-13.72042137,18.6858525,-47.73834872
7.20E+12,-0.25683594,0.084472656,9.623337,0.001678467,-0.003234863,-0.001434326,-12.615967,19.02771,-47.494507,-0.243527826,0.067099942,9.634362731,0.000967117,-0.003909572,-0.000672513,-13.60997594,18.72003825,-47.71396455
7.20E+12,-0.21374512,0.080337524,9.62442,0.00126648,-0.003234863,-0.001083374,-12.312317,19.195557,-47.1344,-0.244858637,0.068837213,9.633260158,0.001038252,-0.003842101,-0.000748694,-13.51057504,18.75080542,-47.6920188
7.20E+12,-0.18676758,0.063201904,9.599274,0.002319336,-0.002914429,-6.87E-04,-12.312317,19.195557,-47.1344,-0.241747285,0.069987245,9.632376142,0.001061075,-0.003781377,-0.000782162,-13.39074924,18.79528058,-47.63625692
7.20E+12,-0.24980164,0.047927856,9.602463,0.002410889,-0.001846314,-0.001434326,-12.312317,19.195557,-47.1344,-0.236249315,0.06930871,9.629065928,0.001186901,-0.003694683,-0.00077261,-13.28290602,18.83530822,-47.58607122
7.20E+12,-0.28353882,0.040390015,9.618622,9.31E-04,-0.001922607,-0.001022339,-12.312317,19.195557,-47.1344,-0.237604547,0.067170625,9.626405635,0.0013093,-0.003509846,-0.000838782,-13.18584711,18.8713331,-47.5409041
7.20E+12,-0.23957825,0.073791504,9.626938,9.31E-04,-0.003234863,-3.66E-04,-13.189697,19.487,-47.703552,-0.242197975,0.064492564,9.625627271,0.001271448,-0.003351122,-0.000857138,-13.0984941,18.90375549,-47.50025369
7.20E+12,-0.23765564,0.07499695,9.644257,9.31E-04,-0.002792358,-8.09E-04,-13.189697,19.487,-47.703552,-0.241936002,0.065422458,9.625758344,0.001237382,-0.003339496,-0.000808045,-13.10761439,18.96207994,-47.52058352
7.20E+12,-0.23182678,0.053619385,9.643814,4.43E-04,-0.002166748,-0.001434326,-13.189697,19.487,-47.703552,-0.241507966,0.066379907,9.62760821,0.001206722,-0.003284782,-0.000808112,-13.11582265,19.01457195,-47.53888037
7.20E+12,-0.24198914,0.055114746,9.660233,-1.37E-04,-0.002166748,-9.61E-04,-13.189697,19.487,-47.703552,-0.240539847,0.065103855,9.629228789,0.001130301,-0.003172979,-0.000870733,-13.12321009,19.06181475,-47.55534753
7.20E+12,-0.25144958,0.08403015,9.665192,8.39E-04,-0.002166748,1.37E-04,-12.741089,19.236755,-48.09723,-0.240684777,0.064104944,9.63232921,0.001003538,-0.003072356,-0.00087979,-13.12985878,19.10433328,-47.57016798
7.20E+12,-0.23657227,0.09008789,9.6609955,0.001998901,-0.002166748,-9.77E-04,-12.741089,19.236755,-48.09723,-0.241761257,0.066097465,9.635615489,0.000987107,-0.002981795,-0.000778079,-13.0909818,19.11757545,-47.62287418
7.20E+12,-0.21917725,0.07821655,9.660263,0.001403809,-0.002761841,-0.001907349,-12.741089,19.236755,-48.09723,-0.241242358,0.068496507,9.63815349,0.001088287,-0.00290029,-0.000797927,-13.05599252,19.1294934,-47.67030976
7.20E+12,-0.21116638,0.083847046,9.6249695,3.20E-04,-0.003234863,-0.001434326,-12.741089,19.236755,-48.09723,-0.239035847,0.069468511,9.640364441,0.001119839,-0.002886445,-0.000908869,-13.02450217,19.14021956,-47.71300179
7.20E+12,-0.22088623,0.093185425,9.6310425,4.88E-04,-0.003875732,-0.001434326,-12.65564,19.195557,-48.139954,-0.236248901,0.070906365,9.638824947,0.001039898,-0.002921287,-0.000961415,-12.99616085,19.14987311,-47.75142461
7.20E+12,-0.23905945,0.09289551,9.6341095,9.31E-04,-0.004928589,-0.001434326,-12.65564,19.195557,-48.139954,-0.234712634,0.073134271,9.638046702,0.000984737,-0.003016732,-0.001008706,-12.96210877,19.1544415,-47.79027755
7.20E+12,-0.22999573,0.10751343,9.626038,2.75E-04,-0.004074097,-7.78E-04,-12.65564,19.195557,-48.139954,-0.235147315,0.075110395,9.637652982,0.000979342,-0.003207917,-0.001051268,-12.93146189,19.15855305,-47.82524519
7.20E+12,-0.24255371,0.094955444,9.607178,-1.37E-04,-0.001815796,3.51E-04,-12.65564,19.195557,-48.139954,-0.234632157,0.078350698,9.636491484,0.000908873,-0.003294535,-0.001023961,-12.9038797,19.16225344,-47.85671607
7.20E+12,-0.25723267,0.08366394,9.612564,5.95E-04,-0.002578735,7.02E-04,-14.874268,18.878174,-46.284485,-0.235424312,0.080011173,9.633560135,0.000804253,-0.003146661,-0.00088647,-12.87905573,19.1655838,-47.88503987
7.20E+12,-0.25057983,0.056793213,9.656479,0.002441406,-0.003234863,-4.58E-05,-14.874268,18.878174,-46.284485,-0.237605148,0.08037645,9.631460522,0.000783337,-0.003089869,-0.000727632,-13.07857696,19.13684282,-47.72498438
7.20E+12,-0.25579834,0.06573486,9.641922,0.001495361,-0.003234863,-0.001144409,-14.874268,18.878174,-46.284485,-0.238902616,0.078018126,9.63396237,0.000949144,-0.003104368,-0.000659447,-13.25814606,19.11097594,-47.58093444
7.20E+12,-0.2592926,0.055236816,9.584473,9.31E-04,-0.002487183,-0.001434326,-14.874268,18.878174,-46.284485,-0.240592188,0.076789799,9.634758333,0.001003766,-0.003117418,-0.000707943,-13.41975826,19.08769574,-47.4512895
7.20E+12,-0.22277832,0.05732727,9.580093,1.07E-04,-0.002166748,-6.10E-04,-13.43689,18.20221,-47.395325,-0.24246223,0.074634501,9.629729799,0.000996468,-0.003054394,-0.000780581,-13.56520923,19.06674357,-47.33460905
7.20E+12,-0.25964355,0.015579224,9.620026,7.17E-04,-0.001312256,-0.001220703,-13.43689,18.20221,-47.395325,-0.240493839,0.072903778,9.62476612,0.000907502,-0.00296563,-0.000763558,-13.55237731,18.98029021,-47.34068064
7.20E+12,-0.27697754,0.08433533,9.656174,0.001815796,-0.002883911,-5.34E-04,-13.43689,18.20221,-47.395325,-0.24240881,0.067171323,9.624292108,0.000888468,-0.002800292,-0.000809273,-13.54082858,18.90248219,-47.34614508
7.20E+12,-0.2449646,0.059692383,9.600433,0.001998901,-0.002334595,-3.66E-04,-13.43689,18.20221,-47.395325,-0.245865683,0.068887723,9.627480297,0.000981201,-0.002808654,-0.000781751,-13.53043472,18.83245497,-47.35106307
7.20E+12,-0.24224854,0.068374634,9.643784,1.22E-04,-0.002166748,-3.66E-04,-13.342285,18.165588,-47.468567,-0.245775575,0.067968189,9.624775567,0.001082971,-0.002761248,-0.000740197,-13.52108025,18.76943047,-47.35548926
7.20E+12,-0.240448,0.07763672,9.548752,7.48E-04,-0.003067017,-3.66E-04,-13.342285,18.165588,-47.468567,-0.245422871,0.068008834,9.62667641,0.000986881,-0.002701798,-0.000702799,-13.50320072,18.70904623,-47.36679704
7.20E+12,-0.21084595,0.05784607,9.666214,0.002883911,-0.002258301,-3.66E-04,-13.342285,18.165588,-47.468567,-0.244925384,0.068971622,9.618883969,0.000962961,-0.00273832,-0.00066914,-13.48710915,18.6547004,-47.37697403
7.20E+12,-0.24160767,0.063705444,9.626709,0.001022339,-0.003189087,-3.66E-04,-13.342285,18.165588,-47.468567,-0.241517441,0.067859067,9.623616972,0.001155056,-0.002690318,-0.000638847,-13.47262674,18.60578916,-47.38613333
7.20E+12,-0.2402649,0.12069702,9.606308,-0.001144409,-0.002212524,6.71E-04,-14.877319,19.699097,-46.969604,-0.241526464,0.067443705,9.623926175,0.001141784,-0.002740195,-0.000611583,-13.45959256,18.56176905,-47.3943767
7.20E+12,-0.2774353,0.08995056,9.660126,-1.53E-04,-0.002166748,0.00177002,-14.877319,19.699097,-46.969604,-0.241400307,0.072769036,9.622164358,0.000913165,-0.002687428,-0.000483286,-13.60136521,18.67550184,-47.35189943
7.20E+12,-0.2277832,0.08091736,9.614975,-1.53E-04,-0.002166748,0.00177002,-14.877319,19.699097,-46.969604,-0.245003806,0.074487189,9.625960522,0.00080659,-0.00263536,-0.000257956,-13.72896058,18.77786136,-47.31366988
7.20E+12,-0.25480652,0.060134888,9.635773,-0.001174927,-0.003204346,-2.90E-04,-14.877319,19.699097,-46.969604,-0.243281746,0.075130206,9.62486197,0.000710672,-0.002588499,-5.52E-05,-13.84379643,18.86998492,-47.2792633
7.20E+12,-0.22355652,0.07455444,9.594467,-7.63E-05,-0.003234863,-3.66E-04,-14.877319,19.699097,-46.969604,-0.244434223,0.073630674,9.625953073,0.000522112,-0.002650083,-7.86E-05,-13.94714868,18.95289613,-47.24829737
7.20E+12,-0.20245361,0.08508301,9.679657,9.31E-04,-0.003143311,-1.68E-04,-14.877319,19.699097,-46.969604,-0.242346453,0.073723051,9.622804465,0.000462271,-0.002708561,-0.000107392,-14.04016572,19.02751622,-47.22042803
7.20E+12,-0.2206726,0.08232117,9.604691,8.09E-04,-0.002288818,0.00177002,-14.877319,19.699097,-46.969604,-0.238357169,0.074859047,9.628489719,0.000509123,-0.002752036,-0.000113437,-14.12388104,19.0946743,-47.19534563
7.20E+12,-0.20999146,0.07821655,9.6302185,1.53E-04,-0.003234863,0.00177002,-13.858032,18.681335,-45.625305,-0.236588712,0.075605259,9.626109847,0.000539082,-0.002705715,7.49E-05,-14.19922484,19.15511657,-47.17277146
7.20E+12,-0.2515564,0.07902527,9.65123,0.001678467,-0.00340271,0.001617432,-13.858032,18.681335,-45.625305,-0.233928987,0.075866388,9.626520712,0.000500433,-0.002758629,0.00024442,-14.16510556,19.10773841,-47.01802482
7.20E+12,-0.22401428,0.07859802,9.601517,-2.59E-04,-0.004074097,5.95E-04,-13.858032,18.681335,-45.625305,-0.235691728,0.076182276,9.628991641,0.000618236,-0.002823037,0.000381721,-14.1343982,19.06509807,-46.87875284
7.20E+12,-0.22003174,0.05883789,9.6310425,-0.001434326,-0.00239563,-1.37E-04,-13.858032,18.681335,-45.625305,-0.234523983,0.076423851,9.626244177,0.000530473,-0.002948143,0.000403058,-14.10676158,19.02672176,-46.75340805
7.20E+12,-0.25794983,0.07569885,9.612335,-0.001815796,-0.003005981,2.44E-04,-13.8168335,18.708801,-45.67871,-0.233074759,0.074665255,9.626724009,0.000333993,-0.002892892,0.000349019,-14.08188862,18.99218309,-46.64059775
7.20E+12,-0.2370758,0.05770874,9.5890045,-1.37E-04,-0.002166748,-0.001434326,-13.8168335,18.708801,-45.67871,-0.235562266,0.074768614,9.625285108,0.000119014,-0.002904201,0.000338531,-14.05538311,18.96384488,-46.54440897
7.20E+12,-0.23550415,0.062347412,9.674591,1.53E-04,-0.002471924,-5.34E-04,-13.8168335,18.708801,-45.67871,-0.235713619,0.073062627,9.621657048,9.34E-05,-0.002830456,0.000161246,-14.03152815,18.93834049,-46.45783908
7.20E+12,-0.21669006,0.058410645,9.625656,6.26E-04,-0.002944946,0.001480103,-13.8168335,18.708801,-45.67871,-0.235692672,0.071991105,9.626950443,9.93E-05,-0.002794602,9.17E-05,-14.01005868,18.91538654,-46.37992617
7.20E+12,-0.23983765,0.076660156,9.660736,-1.37E-04,-0.002456665,4.27E-04,-12.806702,19.410706,-46.98639,-0.233792411,0.070633059,9.626820998,0.000151931,-0.002809637,0.000230554,-13.99073617,18.89472799,-46.30980455
7.20E+12,-0.22564697,0.06756592,9.67981,-1.37E-04,-0.003234863,-7.32E-04,-12.806702,19.410706,-46.98639,-0.234396935,0.071235769,9.630212499,0.000123005,-0.00277434,0.000250223,-13.87233275,18.94632579,-46.3774631
7.20E+12,-0.22743225,0.05532837,9.71434,-1.37E-04,-0.003234863,-0.001434326,-12.806702,19.410706,-46.98639,-0.233521939,0.070868784,9.635172249,9.70E-05,-0.002820392,0.000151959,-13.76576967,18.99276381,-46.43835579
7.20E+12,-0.22888184,0.012649536,9.634949,7.02E-04,-0.003234863,-5.80E-04,-12.806702,19.410706,-46.98639,-0.23291297,0.069314743,9.643089024,7.35E-05,-0.002861839,-6.67E-06,-13.66986291,19.03455803,-46.49315921
7.20E+12,-0.1933899,-0.05155945,9.628677,0.002441406,-0.003234863,7.02E-04,-12.484741,20.054626,-47.302246,-0.232509857,0.063648222,9.642275022,0.000136378,-0.002899142,-6.40E-05,-13.58354682,19.07217283,-46.54248229
7.20E+12,-0.088394165,0.004119873,9.705551,0.003067017,-0.003234863,0.002914429,-12.484741,20.054626,-47.302246,-0.228597861,0.052127455,9.640915219,0.000366881,-0.002932714,1.26E-05,-13.47366623,19.17041814,-46.61845866
7.20E+12,-0.1290741,0.04182434,9.6073,0.003067017,-0.003234863,0.010559082,-12.484741,20.054626,-47.302246,-0.214577491,0.047326697,9.647378797,0.000636894,-0.002962929,0.000302785,-13.37477371,19.25883893,-46.68683739
7.20E+12,-0.22366333,-0.004470825,9.557724,0.002532959,-0.001663208,0.021972656,-12.484741,20.054626,-47.302246,-0.206027152,0.046776461,9.643370918,0.000879907,-0.002990122,0.001328415,-13.28577044,19.33841764,-46.74837825
7.20E+12,-0.15908813,0.03225708,9.658142,8.85E-04,5.19E-04,0.03126526,-12.580872,19.804382,-47.320557,-0.20779077,0.041651732,9.634806226,0.001045212,-0.002857431,0.003392839,-13.2056675,19.41003847,-46.80376503
7.20E+12,-0.23858643,0.040771484,9.663864,0.00100708,-1.22E-04,0.039505005,-12.580872,19.804382,-47.320557,-0.202920506,0.040712267,9.637139803,0.001029192,-0.002519808,0.006180081,-13.14318795,19.44947282,-46.85544423
7.20E+12,-0.25627136,0.020553589,9.575134,0.00138855,0.001296997,0.048233032,-12.580872,19.804382,-47.320557,-0.206487098,0.040718189,9.639812223,0.001026981,-0.002280034,0.009512574,-13.08695635,19.48496374,-46.9019555
7.20E+12,-0.26687622,0.03642273,9.620499,0.001495361,0.002593994,0.05429077,-12.580872,19.804382,-47.320557,-0.211465525,0.038701729,9.633344401,0.001063137,-0.001922331,0.013384619,-13.03634792,19.51690557,-46.94381565
7.20E+12,-0.3080902,0.10131836,9.645065,0.001998901,-0.001586914,0.056869507,-13.366699,17.752075,-47.354126,-0.217006594,0.038473829,9.632059861,0.00110636,-0.001470698,0.017475235,-12.99080032,19.54565321,-46.98148979
7.20E+12,-0.33418274,0.12123108,9.596268,6.41E-04,-0.002960205,0.05731201,-13.366699,17.752075,-47.354126,-0.226114955,0.044758282,9.633360375,0.001195614,-0.00148232,0.021414662,-13.02839019,19.36629539,-47.01875341
7.20E+12,-0.31222534,0.11878967,9.604401,-1.37E-04,-0.002166748,0.051696777,-13.366699,17.752075,-47.354126,-0.236921733,0.052405562,9.629651137,0.00114014,-0.001630108,0.025004397,-13.06222107,19.20487335,-47.05229067
7.20E+12,-0.2909546,0.15455627,9.62912,-1.37E-04,-0.002166748,0.040023804,-13.366699,17.752075,-47.354126,-0.244452094,0.059043973,9.627126123,0.001012393,-0.001683772,0.027673635,-13.09266887,19.05959352,-47.0824742
7.20E+12,-0.26142883,0.12704468,9.657166,6.10E-04,-0.003677368,0.030700684,-13.514709,17.308044,-46.63086,-0.249102345,0.068595202,9.627325511,0.00089742,-0.00173207,0.028908652,-13.12007188,18.92884166,-47.10963938
7.20E+12,-0.20918274,0.047714233,9.593399,1.98E-04,-0.002868652,0.02130127,-13.514709,17.308044,-46.63086,-0.250334993,0.07444015,9.63030956,0.000868714,-0.0019266,0.029087855,-13.15953559,18.7667619,-47.06176144
7.20E+12,-0.2097168,0.03501892,9.560211,-1.37E-04,-0.002960205,0.01234436,-13.514709,17.308044,-46.63086,-0.246219768,0.071767558,9.626618504,0.000801679,-0.002020805,0.028309196,-13.19505293,18.62089011,-47.0186713
7.20E+12,-0.17433167,0.015029907,9.643753,-1.37E-04,-0.003234863,0.007843018,-13.514709,17.308044,-46.63086,-0.242569471,0.068092695,9.619977754,0.000707778,-0.002114745,0.026712713,-13.22701854,18.4896055,-46.97989017
7.20E+12,-0.16018677,0.020889282,9.68132,-1.37E-04,-0.003234863,0.00881958,-13.639832,17.680359,-46.569824,-0.235745691,0.062786416,9.622355278,0.000623267,-0.002226757,0.024825743,-13.25578759,18.37144935,-46.94498715
7.20E+12,-0.21562195,0.07574463,9.632462,0.001602173,-0.004119873,0.014511108,-13.639832,17.680359,-46.569824,-0.228189799,0.058596702,9.62825175,0.000547208,-0.002327568,0.023225127,-13.29419203,18.30234031,-46.90747084
7.20E+12,-0.23554993,0.025970459,9.546249,0.001083374,-0.002502441,0.021072388,-13.639832,17.680359,-46.569824,-0.226933014,0.060311495,9.628672775,0.000652704,-0.002506798,0.022353725,-13.32875602,18.24014218,-46.87370615
7.20E+12,-0.17927551,0.011566162,9.626007,0.001785278,3.97E-04,0.022064209,-13.639832,17.680359,-46.569824,-0.227794706,0.056877392,9.620430398,0.000695771,-0.002506362,0.022225591,-13.35986362,18.18416386,-46.84331794
7.20E+12,-0.09950256,-0.068862915,9.641693,0.001998901,-0.002731323,0.02583313,-14.131165,19.508362,-46.432495,-0.222942786,0.052346269,9.620988058,0.000804722,-0.002216053,0.022209453,-13.38786046,18.13378338,-46.81596854
7.20E+12,-0.052490234,-0.056427002,9.608414,0.001022339,-0.003234863,0.032196045,-14.131165,19.508362,-46.432495,-0.210598763,0.04022535,9.623058552,0.00092414,-0.00226758,0.022571821,-13.46219091,18.27124124,-46.77762119
7.20E+12,-0.26065063,0.09844971,9.718491,-7.63E-05,-0.004241943,0.04777527,-14.131165,19.508362,-46.432495,-0.19478791,0.030560115,9.621594097,0.00093396,-0.002364309,0.023534243,-13.52908832,18.39495332,-46.74310857
7.20E+12,-0.23144531,0.144104,9.587326,-0.001174927,-1.98E-04,0.06523132,-14.131165,19.508362,-46.432495,-0.201374182,0.037349075,9.631283787,0.000832934,-0.002552072,0.025958346,-13.58929599,18.50629418,-46.71204721
7.20E+12,-0.18170166,-3.05E-05,9.627121,-1.68E-04,0.004150391,0.07215881,-13.858032,20.054626,-46.966553,-0.204381295,0.048024567,9.626888009,0.000632148,-0.002316701,0.029885643,-13.64348289,18.60650097,-46.68409199
7.20E+12,-0.046829224,0.122558594,9.667374,8.54E-04,-0.00177002,0.074279785,-13.858032,20.054626,-46.966553,-0.202113332,0.043219059,9.626911308,0.000552149,-0.001669992,0.03411296,-13.6649378,18.75131347,-46.71233809
7.20E+12,-0.1641388,0.21769714,9.650101,-1.37E-04,-0.004226685,0.0843811,-13.858032,20.054626,-46.966553,-0.186584921,0.051153012,9.630957577,0.000582383,-0.001679995,0.038129642,-13.68424722,18.88164472,-46.73775958
7.20E+12,-0.31845093,0.12547302,9.667892,-9.16E-05,-0.002120972,0.093933105,-13.902283,19.750977,-46.670532,-0.184340309,0.067807425,9.632871919,0.000510412,-0.001934664,0.042754788,-13.7016257,18.99894285,-46.76063893
7.20E+12,-0.2401123,0.17256165,9.66246,0.00100708,-0.001190186,0.09931946,-13.902283,19.750977,-46.670532,-0.197751371,0.073573984,9.636373927,0.000450215,-0.001953295,0.04787262,-13.72169143,19.07414626,-46.75162823
7.20E+12,-0.31269836,0.12834167,9.640533,0.00177002,-0.002059937,0.10324097,-13.902283,19.750977,-46.670532,-0.201987464,0.083472751,9.638982535,0.000505902,-0.001876984,0.053017304,-13.73975059,19.14182934,-46.74351861
7.20E+12,-0.38230896,7.02E-04,9.666733,1.07E-04,-9.77E-04,0.102874756,-13.902283,19.750977,-46.670532,-0.213058553,0.087959643,9.639137581,0.000632314,-0.001895279,0.058039671,-13.75600383,19.2027441,-46.73621995
7.20E+12,-0.1219635,-0.013381958,9.495346,0.001907349,-1.22E-04,0.10021973,-14.126587,18.946838,-46.162415,-0.229983594,0.079233869,9.641897123,0.000579763,-0.001803407,0.062523179,-13.77063175,19.25756739,-46.72965115
7.20E+12,-0.4361725,-0.037765503,9.629227,7.32E-04,-0.001663208,0.10310364,-14.126587,18.946838,-46.162415,-0.219181585,0.069972286,9.627242011,0.000712522,-0.001635274,0.066292834,-13.80622727,19.22649445,-46.67292754
7.20E+12,-0.26478577,-0.12522888,9.547699,-1.37E-04,-0.003677368,0.10900879,-14.126587,18.946838,-46.162415,-0.240880676,0.059198507,9.62744051,0.000714512,-0.001638067,0.069973915,-13.83826324,19.19852881,-46.62187628
7.20E+12,-0.22891235,-0.010986328,9.661713,-1.37E-04,-0.002059937,0.11882019,-14.126587,18.946838,-46.162415,-0.243271186,0.040755769,9.619466359,0.000629328,-0.001841997,0.073877402,-13.86709562,19.17335973,-46.57593016
7.20E+12,-0.2931671,-0.14656067,9.610474,-4.12E-04,-0.003799439,0.13604736,-14.373779,19.195557,-47.1344,-0.241835302,0.035581559,9.623691023,0.000552662,-0.001863791,0.078371681,-13.89304476,19.15070756,-46.53457864
7.20E+12,-0.41514587,-0.41311646,9.616104,-9.46E-04,5.04E-04,0.15286255,-14.373779,19.195557,-47.1344,-0.246968482,0.017367336,9.622369321,0.000456197,-0.002057356,0.084139249,-13.94111818,19.1551925,-46.59456078
7.20E+12,-0.19520569,-0.082458496,9.657196,-3.97E-04,-0.002334595,0.17739868,-14.373779,19.195557,-47.1344,-0.263786221,-0.025681044,9.621742788,0.000315973,-0.001801266,0.091011579,-13.98438426,19.15922895,-46.6485447
7.20E+12,-0.045578003,0.028945923,9.567734,-0.001205444,-0.003067017,0.22364807,-14.373779,19.195557,-47.1344,-0.256928168,-0.031358789,9.62528811,0.000244703,-0.001854599,0.099650289,-14.02332374,19.16286175,-46.69713023
7.20E+12,-0.04878235,-0.08879089,9.686844,-0.002304077,0.003509522,0.26341248,-14.263916,19.30542,-47.1344,-0.235793151,-0.025328318,9.619532699,9.97E-05,-0.001975841,0.112050067,-14.05836926,19.16613128,-46.74085721
7.20E+12,-0.17242432,-0.28956604,9.654221,-0.00440979,0.001327515,0.30358887,-14.263916,19.30542,-47.1344,-0.217092071,-0.031674575,9.626263829,-0.000140688,-0.001427305,0.127186309,-14.07892394,19.18006015,-46.78021149
7.20E+12,-0.4032898,-0.024597168,9.644852,-0.003601074,-8.54E-04,0.3529663,-14.263916,19.30542,-47.1344,-0.212625296,-0.057463721,9.629059546,-0.000567599,-0.001151823,0.144826565,-14.09742314,19.19259614,-46.81563034
7.20E+12,-0.42294312,-0.15544128,9.641388,-0.001876831,-5.49E-04,0.41044617,-14.263916,19.30542,-47.1344,-0.231691746,-0.054177066,9.630638791,-0.000870946,-0.00112209,0.165640538,-14.11407243,19.20387852,-46.8475073
7.20E+12,-0.6077423,-0.28178406,9.669098,-0.00163269,0.001678467,0.4737854,-13.554382,19.299316,-46.551514,-0.250816884,-0.064303487,9.631713712,-0.000971535,-0.001064812,0.190121101,-14.12905679,19.21403267,-46.87619657
7.20E+12,-0.5720062,-0.24667358,9.551422,-0.001312256,0.001998901,0.5418854,-13.554382,19.299316,-46.551514,-0.286509425,-0.086051545,9.635452141,-0.00103765,-0.000790484,0.218487531,-14.07158931,19.222561,-46.84372832
7.20E+12,-0.18432617,-0.110580444,9.590378,-6.56E-04,0.004196167,0.60295105,-13.554382,19.299316,-46.551514,-0.315059103,-0.102113748,9.627049127,-0.001065111,-0.000511546,0.250827318,-14.01986858,19.2302365,-46.81450688
7.20E+12,-0.28923035,-0.1404419,9.76944,-0.001205444,0.004760742,0.66703796,-13.554382,19.299316,-46.551514,-0.30198581,-0.102960418,9.623382014,-0.001024212,-4.08E-05,0.286039691,-13.97331992,19.23714445,-46.7882076
7.20E+12,-0.7181854,-0.23757935,9.743088,-0.002334595,0.001983643,0.7236786,-12.65564,18.852234,-45.45746,-0.300710264,-0.106708566,9.637987813,-0.001042336,0.000439377,0.324139518,-13.93142613,19.24336161,-46.76453824
7.20E+12,-1.0526733,-0.3305664,9.575378,-0.003341675,0.002151489,0.77516174,-12.65564,18.852234,-45.45746,-0.342457777,-0.119795644,9.648497831,-0.001171562,0.000593804,0.364093426,-13.80384751,19.20424885,-46.63383041
7.20E+12,-0.91867065,-0.07034302,9.726379,-0.0027771,0.005966187,0.832489,-12.65564,18.852234,-45.45746,-0.413479329,-0.14087272,9.641185848,-0.001388573,0.000749572,0.405200258,-13.68902676,19.16904736,-46.51619337
7.20E+12,-1.3680725,-0.057388306,9.637665,-0.00227356,0.008071899,0.89656067,-12.65564,18.852234,-45.45746,-0.463998462,-0.13381975,9.649705164,-0.001527426,0.001271234,0.447929132,-13.58568809,19.13736603,-46.41032003
7.20E+12,-1.461792,-0.06326294,9.65065,-0.00227356,0.009155273,0.9640198,-12.858582,18.515015,-46.0495,-0.554405865,-0.126176606,9.648501147,-0.001602039,0.0019513,0.492792286,-13.49268328,19.10885282,-46.31503403
7.20E+12,-1.4963837,0.03327942,9.559998,-0.003646851,0.006835938,1.0436096,-12.858582,18.515015,-46.0495,-0.645144479,-0.119885239,9.648716032,-0.001669191,0.002671697,0.539915037,-13.42927315,19.04946904,-46.28848063
7.20E+12,-1.2336426,0.113479614,9.647888,-0.005844116,0.008163452,1.1340027,-12.858582,18.515015,-46.0495,-0.730268401,-0.104568773,9.639844229,-0.001866957,0.003088121,0.590284493,-13.37220404,18.99602364,-46.26458256
7.20E+12,-1.1186981,0.18763733,9.617722,-0.00793457,0.013702393,1.2271423,-12.858582,18.515015,-46.0495,-0.780605821,-0.082763934,9.640648606,-0.002264673,0.003595655,0.644656314,-13.32084183,18.94792277,-46.24307431
7.20E+12,-1.4697723,0.11701965,9.521118,-0.007217407,0.009338379,1.3322906,-12.887573,18.278503,-47.105408,-0.814415049,-0.055723808,9.638355946,-0.002831663,0.004606328,0.702904913,-13.27461585,18.904632,-46.22371688
7.20E+12,-1.5355072,-0.052856445,9.455307,-0.006546021,0.009521484,1.4441528,-12.887573,18.278503,-47.105408,-0.879950774,-0.038449462,9.626632151,-0.003270237,0.005079533,0.765843481,-13.23591156,18.8420191,-46.31188599
7.20E+12,-1.0514832,0.17671204,9.614197,-0.009002686,0.013900757,1.5615234,-12.887573,18.278503,-47.105408,-0.945506417,-0.03989016,9.609499636,-0.003597815,0.005523728,0.833674413,-13.20107771,18.78566749,-46.39123819
7.20E+12,-1.0090942,0.59046936,9.742294,-0.013122559,0.014068604,1.6783142,-12.887573,18.278503,-47.105408,-0.956104095,-0.01822994,9.609969372,-0.004138302,0.006361431,0.906459312,-13.16972724,18.73495104,-46.46265517
7.20E+12,-1.0817108,0.27702332,9.465424,-0.009689331,0.010375977,1.7891235,-12.484741,18.681335,-47.302246,-0.961403105,0.04263999,9.623201835,-0.005036728,0.007132149,0.983644801,-13.14151181,18.68930623,-46.52693045
7.20E+12,-1.5198975,0.23435974,9.812836,-0.010345459,0.019515991,1.8910675,-12.484741,18.681335,-47.302246,-0.973433875,0.066078323,9.607424052,-0.005501988,0.007456531,1.064192671,-13.07583473,18.68850911,-46.60446201
7.20E+12,-0.82658386,-0.07609558,9.42366,-0.013534546,0.011550903,1.9978638,-12.484741,18.681335,-47.302246,-1.028080237,0.082906464,9.627965246,-0.005986335,0.008662477,1.146880154,-13.01672536,18.6877917,-46.67424041
7.20E+12,-0.77311707,-0.31147766,9.285461,-0.012145996,0.018997192,2.102539,-12.484741,18.681335,-47.302246,-1.0079306,0.06700626,9.607534722,-0.006741157,0.00895132,1.231978518,-12.96352692,18.68714603,-46.73704097
7.20E+12,-1.3777161,-0.2959442,9.7339325,-0.014801025,0.01928711,2.197815,-12.724304,19.07959,-47.06726,-0.984449247,0.029157868,9.57532735,-0.00728164,0.009955907,1.319034566,-12.91564833,18.68656493,-46.79356147
7.20E+12,-0.9144592,-0.35420227,9.308975,-0.01411438,0.022155762,2.271637,-12.724304,19.07959,-47.06726,-1.023775932,-0.003352339,9.591187865,-0.008033579,0.010889027,1.40691261,-12.8965139,18.72586743,-46.82093132
7.20E+12,-0.41030884,0.120010376,9.762253,-0.010986328,0.017318726,2.3529968,-12.724304,19.07959,-47.06726,-1.012844259,-0.038437332,9.562966578,-0.008641659,0.012015701,1.493385049,-12.87929291,18.76123969,-46.84556419
7.20E+12,-1.2090607,-0.56448364,9.675217,-0.015670776,0.021896362,2.4170685,-12.724304,19.07959,-47.06726,-0.952590717,-0.022592561,9.58289522,-0.008876126,0.012546003,1.579346224,-12.86379402,18.79307472,-46.86773377
7.20E+12,-0.75650024,-0.56259155,9.531067,-0.012954712,0.015991211,2.4830017,-11.825562,19.371033,-47.288513,-0.978237715,-0.076781669,9.592127398,-0.009555591,0.013481039,1.663118452,-12.84984502,18.82172625,-46.88768639
7.20E+12,-1.1268463,-0.85980225,9.66452,-0.01713562,0.02532959,2.539978,-11.825562,19.371033,-47.288513,-0.956063968,-0.125362657,9.586021359,-0.009895503,0.013732056,1.745106776,-12.74741671,18.87665692,-46.92776906
7.20E+12,-1.2143402,-0.81599426,9.625305,-0.013122559,0.015335083,2.598816,-11.825562,19.371033,-47.288513,-0.973142201,-0.198806616,9.593871223,-0.010619515,0.01489181,1.824593899,-12.65523124,18.92609453,-46.96384345
7.20E+12,-0.255188,-0.7911682,9.426804,-0.016311646,0.023468018,2.65419,-10.595703,19.195557,-47.80426,-0.997262001,-0.260525381,9.5970146,-0.010869819,0.014936137,1.902016109,-12.57226432,18.97058838,-46.9963104
7.20E+12,-0.35577393,-0.65682983,9.718826,-0.018203735,0.02281189,2.7376251,-10.595703,19.195557,-47.80426,-0.923054601,-0.313589663,9.57999354,-0.011414002,0.015789325,1.977233498,-12.37460819,18.99308524,-47.07710536
7.20E+12,-0.76834106,-0.9374695,9.681931,-0.017196655,0.016418457,2.8122253,-10.595703,19.195557,-47.80426,-0.866326534,-0.347913679,9.593876786,-0.012092975,0.016491582,2.053272658,-12.19671767,19.01333242,-47.14982083
7.20E+12,-0.79156494,-1.0091095,9.686966,-0.016021729,0.026229858,2.8766327,-10.595703,19.195557,-47.80426,-0.856527986,-0.406869261,9.602682208,-0.012603343,0.016484269,2.129167922,-12.0366162,19.03155488,-47.21526475
7.20E+12,-1.2876892,-1.0645447,9.673874,-0.015274048,0.023468018,2.9418335,-10.688782,18.553162,-46.99707,-0.850031682,-0.467093285,9.611110587,-0.012945182,0.017458828,2.2039144,-11.89252488,19.04795509,-47.27416427
7.20E+12,-0.755661,-0.9550781,9.743378,-0.016159058,0.02406311,3.038559,-10.688782,18.553162,-46.99707,-0.893797434,-0.526838427,9.617386928,-0.013178068,0.018059747,2.27770631,-11.77215059,18.99847578,-47.24645484
7.20E+12,-0.6527252,-1.1440125,9.59108,-0.01638794,0.027786255,3.1564026,-10.688782,18.553162,-46.99707,-0.87998379,-0.569662394,9.629986035,-0.013476167,0.018660083,2.353791579,-11.66381373,18.9539444,-47.22151636
7.20E+12,-1.2989197,-1.5379639,9.571884,-0.017456055,0.031326294,3.269333,-10.688782,18.553162,-46.99707,-0.857257931,-0.627097405,9.626095432,-0.013767345,0.019572701,2.434052681,-11.56631056,18.91386616,-47.19907172
7.20E+12,-1.6516571,-1.2536163,9.559662,-0.018920898,0.030670166,3.3728333,-9.140015,18.281555,-46.014404,-0.901424108,-0.718184054,9.620674289,-0.014136216,0.02074806,2.517580713,-11.4785577,18.87779574,-47.17887155
7.20E+12,-2.28656,-1.4083862,9.489456,-0.021499634,0.03781128,3.4923553,-9.140015,18.281555,-46.014404,-0.976447407,-0.771727279,9.61457306,-0.014614684,0.02174027,2.603105972,-11.24470343,18.81817167,-47.0624248
7.20E+12,-1.4592743,-0.9624634,9.4136505,-0.0211792,0.035949707,3.6400604,-9.140015,18.281555,-46.014404,-1.107458667,-0.835393171,9.602061354,-0.015303179,0.023347371,2.692030905,-11.03423459,18.76451,-46.95762272
7.20E+12,-1.3868103,-0.986084,9.444244,-0.020431519,0.03591919,3.823532,-9.140015,18.281555,-46.014404,-1.14264023,-0.848100194,9.583220268,-0.015890781,0.024607605,2.786833854,-10.84481263,18.7162145,-46.86330084
7.20E+12,-1.0424194,-1.171875,9.673294,-0.021560669,0.038101196,3.9756622,-7.849121,18.508911,-45.79315,-1.167057237,-0.861898574,9.569322642,-0.016344855,0.025738763,2.890503669,-10.67433287,18.67274855,-46.77841116
7.20E+12,-1.3851013,-1.2171173,9.819092,-0.024017334,0.039855957,4.088608,-7.849121,18.508911,-45.79315,-1.154593453,-0.892896217,9.579719777,-0.016866436,0.026975007,2.999019522,-10.39181168,18.6563648,-46.67988504
7.20E+12,-1.1683197,-1.2285004,9.6698,-0.023590088,0.04017639,4.187195,-7.849121,18.508911,-45.79315,-1.177644238,-0.925318325,9.603657,-0.017581526,0.028263102,3.10797837,-10.13754261,18.64161942,-46.59121154
7.20E+12,-1.1517792,-1.2496948,9.595154,-0.021957397,0.04083252,4.29274,-7.849121,18.508911,-45.79315,-1.176711784,-0.955636533,9.6102713,-0.018182382,0.029454431,3.215900033,-9.908700452,18.62834858,-46.51140539
7.20E+12,-1.3101654,-1.5883942,9.553741,-0.022567749,0.04220581,4.384491,-6.9137573,19.02771,-46.90857,-1.174218526,-0.98504236,9.60875957,-0.018559884,0.03059224,3.323584029,-9.702742507,18.61640482,-46.43957985
7.20E+12,-0.7703247,-1.6131439,9.544556,-0.023071289,0.040618896,4.4698944,-6.9137573,19.02771,-46.90857,-1.187813213,-1.045377544,9.603257713,-0.01896067,0.031753597,3.429674726,-9.423843986,18.65753534,-46.48647886
7.20E+12,-0.28070068,-1.3099518,9.778564,-0.025222778,0.04524231,4.5569763,-6.9137573,19.02771,-46.90857,-1.146064362,-1.102154179,9.597387542,-0.019371732,0.032640127,3.533696694,-9.172835317,18.6945528,-46.52868798
7.20E+12,-0.08644104,-1.1313019,9.833038,-0.027359009,0.049179077,4.633972,-6.9137573,19.02771,-46.90857,-1.059527994,-1.122933941,9.615505187,-0.019956837,0.033900345,3.636024654,-8.946927516,18.72786852,-46.56667618
7.20E+12,0.3961792,-0.908432,9.601807,-0.02684021,0.044265747,4.686661,-4.574585,18.719482,-46.792603,-0.962219298,-1.123770737,9.637258469,-0.020697054,0.035428218,3.735819389,-8.743610494,18.75785267,-46.60086556
7.20E+12,0.12513733,-1.057373,9.515411,-0.025177002,0.048217773,4.72316,-4.574585,18.719482,-46.792603,-0.826379448,-1.102236863,9.633713322,-0.02131137,0.036311971,3.83090355,-8.326707945,18.7540156,-46.6200393
7.20E+12,0.25749207,-0.9811859,9.621933,-0.025344849,0.050231934,4.732971,-4.574585,18.719482,-46.792603,-0.731227771,-1.097750477,9.62188309,-0.021697933,0.037502551,3.920129195,-7.95149565,18.75056224,-46.63729567
7.20E+12,0.6061249,-0.8388672,9.683395,-0.024475098,0.046066284,4.7211914,-4.574585,18.719482,-46.792603,-0.632355787,-1.086094019,9.621888081,-0.022062624,0.038775489,4.001413376,-7.613804585,18.74745422,-46.65282641
7.20E+12,0.5826111,-0.8739624,9.676453,-0.02229309,0.044830322,4.709961,-3.5568237,18.338013,-46.29669,-0.508507718,-1.061371337,9.628038773,-0.022303872,0.039504569,4.073391178,-7.309882627,18.744657,-46.66680407
7.20E+12,0.5542908,-0.83140564,9.625961,-0.021499634,0.04222107,4.7016144,-3.5568237,18.338013,-46.29669,-0.399395836,-1.042630444,9.632880195,-0.022302794,0.040037144,4.13704816,-6.934576734,18.7039926,-46.62979266
7.20E+12,0.3677063,-0.7676239,9.62056,-0.021499634,0.03845215,4.6982727,-3.5568237,18.338013,-46.29669,-0.304027172,-1.021507963,9.632188276,-0.022222478,0.040255537,4.193504784,-6.596801431,18.66739464,-46.59648239
7.20E+12,-0.10664368,-0.92271423,9.54805,-0.021499634,0.04336548,4.700531,-3.5568237,18.338013,-46.29669,-0.236853825,-0.996119557,9.631025448,-0.022150193,0.040075198,4.243981576,-6.292803658,18.63445647,-46.56650315
7.20E+12,-0.11380005,-0.81944275,9.620087,-0.022277832,0.046661377,4.7076874,-1.9332886,18.104553,-46.069336,-0.223832811,-0.988779024,9.622727903,-0.022085137,0.040404226,4.289636518,-6.019205662,18.60481213,-46.53952184
7.20E+12,0.14788818,-0.60736084,9.705551,-0.022567749,0.046157837,4.72287,-1.9332886,18.104553,-46.069336,-0.212829535,-0.971845397,9.622463813,-0.022104407,0.041029941,4.331441606,-5.610613956,18.55478621,-46.49250325
7.20E+12,-0.45214844,-0.7809448,9.612808,-0.023406982,0.047546387,4.7461853,-1.9332886,18.104553,-46.069336,-0.176757763,-0.935396941,9.630772532,-0.022150741,0.041542731,4.370584446,-5.24288142,18.50976289,-46.45018653
7.20E+12,-0.28808594,-0.8937073,9.5503235,-0.023635864,0.051193237,4.758026,-1.9332886,18.104553,-46.069336,-0.204296831,-0.919951727,9.628976079,-0.022276365,0.042143097,4.408144531,-4.911922138,18.4692419,-46.41210148
7.20E+12,0.19140625,-0.5687256,9.6649475,-0.022781372,0.0471344,4.78862,0.045776367,16.313171,-45.726013,-0.212675742,-0.917327284,9.621110821,-0.022412315,0.043048111,4.443132678,-4.614058784,18.43277301,-46.37782493
7.20E+12,0.35720825,-0.5715332,9.608475,-0.023483276,0.046798706,4.830673,0.045776367,16.313171,-45.726013,-0.172267543,-0.882467116,9.625494489,-0.022449221,0.04345674,4.47768141,-4.148075269,18.22081281,-46.31264374
7.20E+12,1.1038818,-0.28096008,9.673325,-0.02456665,0.051605225,4.8538513,0.045776367,16.313171,-45.726013,-0.119319963,-0.851373724,9.62379254,-0.022552626,0.043790936,4.512980569,-3.728690106,18.03004863,-46.25398066
7.20E+12,0.19692993,-0.0398407,9.761139,-0.025665283,0.049438477,4.8506317,0.045776367,16.313171,-45.726013,0.003000213,-0.79433236,9.628745786,-0.022754029,0.044572365,4.547067642,-3.351243458,17.85836087,-46.2011839
7.20E+12,0.61787415,0.09535217,9.489899,-0.024795532,0.049102783,4.811661,0.5630493,15.589905,-45.625305,0.022393185,-0.718883194,9.641985107,-0.023045154,0.045058976,4.577424048,-3.011541476,17.70384188,-46.15366681
7.20E+12,0.5661621,0.054016113,9.649307,-0.02470398,0.05848694,4.7435455,0.5630493,15.589905,-45.625305,0.081941281,-0.637459658,9.626776496,-0.023220192,0.045463357,4.600847743,-2.654082398,17.49244819,-46.10083063
7.20E+12,1.2432098,0.3524475,9.594681,-0.025741577,0.05255127,4.6365356,0.5630493,15.589905,-45.625305,0.130363363,-0.56831208,9.629029547,-0.023368571,0.046765715,4.615117519,-2.332369228,17.30219387,-46.05327806
7.20E+12,0.7408142,0.122528076,9.505585,-0.022598267,0.048049927,4.5121155,1.461792,13.919067,-44.99817,0.241648007,-0.476236122,9.625594692,-0.023605871,0.047344271,4.617259327,-2.042827376,17.13096499,-46.01048076
7.20E+12,0.3620758,0.08003235,9.725143,-0.01940918,0.046844482,4.360428,1.461792,13.919067,-44.99817,0.291564626,-0.416359703,9.613593723,-0.023505111,0.047414836,4.606744944,-1.692365438,16.80977519,-45.90924968
7.20E+12,-0.1763916,0.3310547,9.6332855,-0.021484375,0.040496826,4.22493,1.461792,13.919067,-44.99817,0.298615744,-0.366720497,9.624748651,-0.023095518,0.047357801,4.58211325,-1.376949694,16.52070437,-45.81814171
7.20E+12,0.012161255,0.2617035,9.687866,-0.020507813,0.038848877,4.086609,1.461792,13.919067,-44.99817,0.251115009,-0.296942978,9.625602336,-0.022934404,0.046671703,4.546394925,-1.093075525,16.26054063,-45.73614454
7.20E+12,0.051971436,0.2952118,9.744095,-0.021484375,0.04585266,3.9690094,3.617859,11.77063,-45.303345,0.227219634,-0.24107833,9.631828702,-0.022691744,0.045889421,4.500416332,-0.837588772,16.02639327,-45.66234709
7.21E+12,0.26914978,0.3006134,9.368668,-0.017959595,0.04032898,3.8335724,3.617859,11.77063,-45.303345,0.209694814,-0.187449317,9.643055332,-0.022571008,0.045885745,4.447275639,-0.392043995,15.60081694,-45.62644688
7.21E+12,0.28134155,0.173172,9.837509,-0.015518189,0.038131714,3.7024689,3.617859,11.77063,-45.303345,0.215640311,-0.138643045,9.615616599,-0.022109866,0.045330068,4.385905315,0.008946304,15.21779825,-45.59413669
7.21E+12,0.32426453,0.049438477,9.785126,-0.017974854,0.035949707,3.5644836,3.617859,11.77063,-45.303345,0.222210435,-0.107461541,9.637805839,-0.021450698,0.044610233,4.317561674,0.369837574,14.87308142,-45.56505752
7.21E+12,0.21148682,-0.43133545,9.443497,-0.015594482,0.03375244,3.418991,4.168701,11.299133,-45.45746,0.232415844,-0.091771539,9.652537855,-0.021103114,0.04374418,4.242253866,0.694639717,14.56283628,-45.53888627
7.21E+12,0.2192688,-0.86587524,9.543106,-0.01335144,0.032791138,3.2736816,4.168701,11.299133,-45.45746,0.230322942,-0.12572793,9.631633769,-0.020552251,0.042745006,4.15992758,1.042045845,14.23646595,-45.53074364
7.21E+12,0.33929443,-0.99868774,9.489929,-0.015792847,0.03593445,3.1466522,4.168701,11.299133,-45.45746,0.229217527,-0.199742661,9.622780992,-0.01983217,0.041749619,4.071302982,1.35471136,13.94273266,-45.52341528
7.21E+12,0.38175964,-1.2748413,9.643265,-0.019363403,0.033355713,3.0126343,4.168701,11.299133,-45.45746,0.240225218,-0.279637169,9.609495793,-0.019428237,0.041168102,3.978837904,1.636110324,13.67837269,-45.51681975
7.21E+12,0.7238922,-1.0951233,9.555542,-0.018798828,0.031219482,2.8915558,5.570984,10.176086,-45.45746,0.25437866,-0.379157582,9.612872714,-0.019421754,0.040386863,3.882217543,1.889369392,13.44044872,-45.51088378
7.21E+12,0.60406494,-1.0493927,9.676224,-0.016921997,0.03201294,2.7791138,5.570984,10.176086,-45.45746,0.301330014,-0.450754154,9.607139643,-0.019359461,0.039470125,3.783151369,2.257530853,13.11401245,-45.5055414
7.21E+12,0.78585815,-0.8527069,9.692688,-0.016159058,0.030654907,2.6725311,5.570984,10.176086,-45.45746,0.331603507,-0.510618008,9.614048078,-0.019115715,0.038724407,3.682747612,2.588876167,12.82021981,-45.50073326
7.21E+12,0.45721436,-0.6398468,9.571518,-0.016159058,0.027389526,2.5806885,5.570984,10.176086,-45.45746,0.377028971,-0.544826898,9.62191207,-0.018820049,0.037917457,3.581725961,2.887086951,12.55580642,-45.49640593
7.21E+12,0.7732849,-0.30447388,9.673965,-0.015838623,0.026672363,2.4936066,6.7504883,9.347534,-45.17517,0.38504751,-0.554328888,9.616872663,-0.01855395,0.036864664,3.481622215,3.155476656,12.31783438,-45.49251134
7.21E+12,0.8855133,0.015594482,9.672989,-0.014694214,0.023788452,2.3998108,6.7504883,9.347534,-45.17517,0.423871249,-0.529343387,9.622581897,-0.018282417,0.035845434,3.382820653,3.51497782,12.02080434,-45.46077721
7.21E+12,1.0408936,0.37057495,9.585907,-0.012710571,0.020065308,2.2947235,6.7504883,9.347534,-45.17517,0.470035454,-0.4748496,9.627622607,-0.017923597,0.034639736,3.284519668,3.838528868,11.75347731,-45.43221648
7.21E+12,1.2169342,0.8092804,9.568695,-0.011291504,0.022720337,2.1718597,6.7504883,9.347534,-45.17517,0.527121269,-0.390307145,9.623451047,-0.017402294,0.033182293,3.185540051,4.129724811,11.51288298,-45.40651184
7.21E+12,1.1793518,1.0010529,9.580826,-0.011398315,0.02305603,2.0402374,6.915283,9.237671,-45.12329,0.596102562,-0.270348391,9.617975442,-0.016791215,0.032136097,3.084172016,4.39180116,11.29634808,-45.38337765
7.21E+12,1.0497742,1.1583557,9.599945,-0.010345459,0.01940918,1.907959,6.915283,9.237671,-45.12329,0.654427486,-0.143208262,9.614260498,-0.016251925,0.03122809,2.979778554,4.644149344,11.09048037,-45.35736889
7.21E+12,1.0003052,1.1297455,9.787308,-0.009750366,0.016052246,1.7662964,6.915283,9.237671,-45.12329,0.693962157,-0.013051865,9.612828948,-0.015661279,0.030046199,2.872596599,4.87126271,10.90519944,-45.333961
7.21E+12,0.843277,0.7987671,9.700287,-0.009185791,0.017181396,1.6150513,6.915283,9.237671,-45.12329,0.724596461,0.101227871,9.630276853,-0.015070187,0.028646804,2.761966579,5.075664739,10.73844659,-45.3128939
7.21E+12,0.63679504,0.48078918,9.531296,-0.006912231,0.015060425,1.4769592,5.3894043,8.016968,-45.41931,0.736464515,0.170981794,9.637277868,-0.014481748,0.027500263,2.647275051,5.259626565,10.58836903,-45.29393351
7.21E+12,0.8009033,0.5315552,9.741806,-0.005477905,0.01171875,1.3543854,5.3894043,8.016968,-45.41931,0.726497568,0.201962533,9.626679681,-0.013724796,0.026256279,2.530243466,5.272604338,10.33122893,-45.30647116
7.21E+12,0.9094696,0.528595,9.705078,-0.006134033,0.011062622,1.2426605,5.3894043,8.016968,-45.41931,0.733938141,0.234921799,9.638192313,-0.012900107,0.024802526,2.412657659,5.284284335,10.09980284,-45.31775504
7.21E+12,0.65805054,0.39642334,9.628159,-0.005310059,0.010025024,1.1394501,5.3894043,8.016968,-45.41931,0.751491287,0.264289119,9.644880882,-0.0122235,0.023428536,2.295657944,5.294796331,9.891519353,-45.32791054
7.21E+12,0.41926575,0.46447754,9.686493,-0.005081177,0.008255005,1.034195,6.44989,5.673218,-46.069336,0.742147212,0.277502541,9.643208694,-0.011532156,0.022088185,2.180037159,5.304257128,9.704064218,-45.33705048
7.21E+12,0.22340393,0.42512512,9.740433,-0.004776001,0.006729126,0.9403076,6.44989,5.673218,-46.069336,0.709859066,0.296200041,9.647537124,-0.010887058,0.020704867,2.065452943,5.418820415,9.300979596,-45.41027904
7.21E+12,0.47520447,0.26179504,9.549301,-0.002182007,0.007110596,0.86161804,6.44989,5.673218,-46.069336,0.661213552,0.309092549,9.656826712,-0.010275952,0.019307293,1.952938409,5.521927374,8.938203436,-45.47618473
7.21E+12,0.33666992,0.12573242,9.720276,-0.001983643,0.005905151,0.7983856,6.44989,5.673218,-46.069336,0.642612644,0.304362798,9.646074141,-0.009466558,0.018087623,1.843806372,5.614723636,8.611704893,-45.53549986
7.21E+12,0.07948303,-0.001586914,9.657898,-0.003067017,0.001342773,0.7485504,6.5719604,5.4611206,-46.128845,0.612018372,0.28649976,9.653494327,-0.008718266,0.016869376,1.739264295,5.698240273,8.317856203,-45.58888347
7.21E+12,-0.006317139,-0.013244629,9.657303,-0.001831055,0.004516602,0.7039795,6.5719604,5.4611206,-46.128845,0.558764838,0.257691093,9.653934694,-0.008153141,0.015316716,1.640192905,5.785612285,8.032182643,-45.64287963
7.21E+12,0.09284973,0.16726685,9.615189,-0.002868652,0.008026123,0.6602173,6.5719604,5.4611206,-46.128845,0.50225664,0.230597521,9.654271524,-0.007520932,0.014236704,1.546571565,5.864247097,7.775076439,-45.69147616
7.21E+12,-0.21452332,-0.05871582,9.677277,-0.002487183,0.005905151,0.61990356,6.5719604,5.4611206,-46.128845,0.461315949,0.224264454,9.650363272,-0.007055704,0.013615646,1.457936138,5.935018427,7.543680855,-45.73521305
7.21E+12,-0.005020142,0.16964722,9.568588,-0.00138855,8.24E-04,0.57691956,7.725525,5.6259155,-45.324707,0.393732022,0.195966426,9.653054645,-0.006598852,0.012844597,1.37413288,5.998712624,7.335424829,-45.77457624
7.21E+12,-0.2033844,0.052093506,9.681442,-0.001205444,0.002731323,0.5386658,7.725525,5.6259155,-45.324707,0.353856806,0.193334506,9.64460798,-0.006077822,0.011642534,1.294411548,6.171393862,7.164473896,-45.72958932
7.21E+12,-0.28771973,-0.04573059,9.648804,-0.001205444,0.003173828,0.51013184,7.725525,5.6259155,-45.324707,0.298132685,0.179210406,9.648291382,-0.005590584,0.010751413,1.218836974,6.326806976,7.010618057,-45.68910109
7.21E+12,0.5676422,0.2029419,9.685501,-3.05E-04,4.58E-04,0.5015869,7.725525,5.6259155,-45.324707,0.239547444,0.156716306,9.648342644,-0.00515207,0.009993655,1.14796646,6.466678778,6.872147801,-45.65266168
7.21E+12,0.17008972,0.09233093,9.637482,-1.37E-04,0.002914429,0.49371338,6.42395,4.9591064,-44.303894,0.272356919,0.161338866,9.65205848,-0.004667381,0.009040066,1.083328504,6.5925634,6.747524571,-45.61986621
7.21E+12,0.4912262,-0.02142334,9.655655,-0.001159668,0.002151489,0.46266174,6.42395,4.9591064,-44.303894,0.262130199,0.154438072,9.650600832,-0.004214376,0.008427502,1.024366992,6.57570206,6.568682754,-45.48826899
7.21E+12,0.17631531,-0.03842163,9.627609,-0.002258301,-0.001022339,0.43190002,6.42395,4.9591064,-44.303894,0.285039799,0.136851931,9.651106249,-0.003908905,0.007799901,0.968196467,6.560526854,6.407725118,-45.36983149
7.21E+12,-0.47732544,-0.06283569,9.614212,-0.001205444,-0.002166748,0.40979004,6.42395,4.9591064,-44.303894,0.27416735,0.119324575,9.648756524,-0.003743844,0.006917677,0.914566822,6.546869169,6.262863247,-45.26323774
7.21E+12,-0.16175842,0.03479004,9.793564,-0.001205444,-0.002166748,0.40979004,6.42395,4.9591064,-44.303894,0.199018071,0.101108548,9.645302071,-0.003490004,0.006009234,0.864089144,6.534577252,6.132487562,-45.16730337
7.21E+12,-0.27766418,-0.12991333,9.5923,0.001922607,0.004241943,0.38850403,6.42395,4.9591064,-44.303894,0.162940422,0.094476697,9.660128264,-0.003261548,0.005191636,0.818659233,6.523514527,6.015149446,-45.08096243
7.21E+12,-0.41316223,-0.16452026,9.61647,-1.37E-04,0.004089356,0.39686584,6.42395,4.9591064,-44.303894,0.118879962,0.072037695,9.653345438,-0.002743133,0.005096667,0.775643713,6.513558074,5.909545141,-45.00325559
7.21E+12,-0.24459839,-0.05241394,9.494293,-1.37E-04,0.002304077,0.41148376,6.402588,4.9453735,-44.29779,0.065675743,0.048381899,9.649657894,-0.002482552,0.004995936,0.737765926,6.504597267,5.814501267,-44.93331943
7.21E+12,-0.22254944,-0.0811615,9.610611,-5.19E-04,0.003982544,0.42933655,6.402588,4.9453735,-44.29779,0.03464833,0.038302315,9.634121405,-0.00224803,0.00472675,0.705137709,6.49439634,5.72758849,-44.86976649
7.21E+12,0.021133423,-0.03816223,9.861664,-0.003204346,0.001800537,0.4404297,6.402588,4.9453735,-44.29779,0.008928553,0.026355934,9.631770364,-0.002075107,0.004652329,0.677557593,6.485215506,5.649366991,-44.81256884
7.21E+12,0.04928589,0.004043579,9.66275,-0.001800537,2.90E-04,0.446167,6.402588,4.9453735,-44.29779,0.01014904,0.019904117,9.654759728,-0.002188031,0.00436715,0.653844804,6.476952755,5.578967642,-44.76109095
7.21E+12,-0.17004395,-0.18589783,9.601639,7.93E-04,0.002105713,0.45291138,7.243347,4.7683716,-47.099304,0.014062725,0.018318064,9.655558755,-0.002149281,0.003959427,0.633077024,6.46951628,5.515608228,-44.71476086
7.21E+12,-0.004318237,-0.18830872,9.719818,-8.09E-04,0.001663208,0.45812988,7.243347,4.7683716,-47.099304,-0.004347943,-0.002103526,9.650166779,-0.001855008,0.003774055,0.615060459,6.546899352,5.440884565,-44.95321517
7.21E+12,-0.058303833,-0.2246399,9.530685,-0.002853394,0.001190186,0.47140503,7.243347,4.7683716,-47.099304,-0.004344972,-0.020724045,9.657131902,-0.001750378,0.003562971,0.599367401,6.616544117,5.373633269,-45.16782405
7.21E+12,0.04837036,-0.12173462,9.627823,-0.001205444,0.005569458,0.4861908,7.243347,4.7683716,-47.099304,-0.009740858,-0.041115631,9.644487211,-0.00186068,0.003325692,0.586571164,6.679224405,5.313107102,-45.36097205
7.21E+12,0.039993286,-0.14587402,9.594421,-9.16E-04,0.00517273,0.48858643,6.742859,4.6035767,-45.961,-0.003929736,-0.04917753,9.64282079,-0.001795156,0.003550069,0.576533128,6.735636665,5.258633552,-45.53480524
7.21E+12,-0.17132568,-0.20040894,9.593491,-7.48E-04,0.00239563,0.47912598,6.742859,4.6035767,-45.961,0.000462566,-0.058847179,9.637980811,-0.001707193,0.003712335,0.567738458,6.736358898,5.193127866,-45.57742472
7.21E+12,0.07736206,-0.094314575,9.625549,-0.001708984,0.002593994,0.4675293,6.742859,4.6035767,-45.961,-0.016716259,-0.073003355,9.63353183,-0.001611242,0.003580664,0.55887721,6.737008908,5.13417275,-45.61578225
7.21E+12,0.43685913,0.1609497,9.613342,-1.37E-04,6.56E-04,0.45669556,6.742859,4.6035767,-45.961,-0.007308427,-0.075134477,9.632733547,-0.001621016,0.003481997,0.549742419,6.737593917,5.081113145,-45.65030402
7.21E+12,0.4075775,0.24433899,9.663956,-1.37E-04,3.66E-04,0.44377136,6.781006,4.5898438,-45.921326,0.037108329,-0.051526059,9.630794392,-0.001472648,0.00319941,0.540437733,6.738120426,5.0333595,-45.68137362
7.21E+12,0.30973816,0.17308044,9.651062,2.75E-04,0.001876831,0.41755676,6.781006,4.5898438,-45.921326,0.074155246,-0.021939554,9.634110553,-0.001339116,0.00291609,0.530771096,6.742408983,4.98900793,-45.70536886
7.21E+12,0.3358307,0.24430847,9.664719,4.73E-04,0.00227356,0.39172363,6.781006,4.5898438,-45.921326,0.097713537,-0.002437555,9.635805698,-0.001177738,0.002812164,0.519449662,6.746268685,4.949091517,-45.72696457
7.21E+12,0.098983765,0.15242004,9.586365,-1.37E-04,0.001907349,0.37026978,6.781006,4.5898438,-45.921326,0.121525254,0.022237048,9.638697028,-0.001012662,0.002758304,0.506677059,6.749742416,4.913166746,-45.74640072
7.21E+12,0.089767456,0.12773132,9.622818,-1.37E-04,0.005004883,0.3440094,7.2402954,4.310608,-45.407104,0.119271105,0.035255347,9.633463825,-0.000925129,0.002673208,0.493036331,6.752868775,4.880834451,-45.76389324
7.21E+12,-0.11645508,0.19515991,9.6614685,-6.71E-04,0.005325317,0.31330872,7.2402954,4.310608,-45.407104,0.11632074,0.044502944,9.632399243,-0.000846349,0.002906376,0.478133638,6.801611437,4.823811806,-45.72821432
7.21E+12,-0.38237,0.120285034,9.616669,4.43E-04,0.002059937,0.2888031,7.2402954,4.310608,-45.407104,0.093043158,0.059568641,9.635306168,-0.000828853,0.00314827,0.461651146,6.845479834,4.772491425,-45.69610329
7.21E+12,-0.24743652,0.14094543,9.686447,0.001419067,0.001602173,0.27198792,7.2402954,4.310608,-45.407104,0.045501842,0.06564028,9.633442452,-0.000701717,0.003039437,0.444366342,6.88496139,4.726303083,-45.66720336
7.21E+12,-0.16635132,0.14967346,9.63147,0.001525879,-3.05E-04,0.26260376,7.0861816,3.2302856,-44.955444,0.016208006,0.073170795,9.638742906,-0.000489639,0.00289571,0.427128499,6.920494791,4.684733574,-45.64119342
7.21E+12,-0.0776062,0.16107178,9.613998,-3.36E-04,-0.00100708,0.25445557,7.0861816,3.2302856,-44.955444,-0.002047927,0.080821062,9.638015616,-0.000288087,0.002575622,0.410676026,6.937063472,4.539288777,-45.57261848
7.21E+12,-0.09611511,0.113342285,9.639191,-0.00227356,-6.56E-04,0.24403381,7.0861816,3.2302856,-44.955444,-0.009603754,0.088846133,9.635613854,-0.000292847,0.002217352,0.39505398,6.951975285,4.408388459,-45.51090103
7.21E+12,0.22468567,0.30619812,9.640915,-9.31E-04,-0.002456665,0.23522949,7.0861816,3.2302856,-44.955444,-0.01825489,0.091295749,9.635971569,-0.000490919,0.001930004,0.379951963,6.965395916,4.290578173,-45.45535533
7.21E+12,0.2816162,0.2679901,9.574234,5.65E-04,-0.003234863,0.22476196,7.0602417,3.1539917,-45.17517,0.006039166,0.112785986,9.636465912,-0.000534905,0.001491337,0.365479716,6.977474485,4.184548916,-45.4053642
7.21E+12,0.06434631,0.134552,9.638367,0.001647949,-3.20E-04,0.20396423,7.0602417,3.1539917,-45.17517,0.03359687,0.128306397,9.630242721,-0.000424957,0.001018717,0.35140794,6.985751206,4.081493194,-45.38234478
7.21E+12,0.26739502,0.1493988,9.58017,0.002746582,-0.001220703,0.1676178,7.0602417,3.1539917,-45.17517,0.036671814,0.128930957,9.631055149,-0.000217667,0.000884802,0.336663569,6.993200256,3.988743045,-45.3616273
7.21E+12,0.41967773,0.16169739,9.643845,0.002334595,-0.004348755,0.1368103,7.0602417,3.1539917,-45.17517,0.059744134,0.130977742,9.625966634,7.88E-05,0.000674251,0.319758992,6.9999044,3.905267911,-45.34298157
7.21E+12,0.19946289,0.17578125,9.651474,0.001205444,-0.005371094,0.109069824,7.119751,2.9190063,-46.20514,0.095737494,0.134049707,9.62775447,0.000304342,0.000171951,0.301464123,7.00593813,3.830140289,-45.32620041
7.21E+12,0.05908203,0.1290741,9.628555,0.001754761,-0.002883911,0.07563782,7.119751,2.9190063,-46.20514,0.106110034,0.138222861,9.630126423,0.000394452,-0.000382354,0.282224693,7.017319417,3.739026891,-45.41409437
7.21E+12,-0.08325195,0.098602295,9.635071,0.00112915,-0.001312256,0.04660034,7.119751,2.9190063,-46.20514,0.101407233,0.137307985,9.629969281,0.000530483,-0.00063251,0.261566006,7.027562575,3.657024831,-45.49319893
7.21E+12,-0.19387817,0.06669617,9.606949,9.31E-04,-0.002868652,0.023651123,7.119751,2.9190063,-46.20514,0.082941315,0.133437416,9.630479453,0.00059035,-0.000700484,0.240069439,7.036781418,3.583222978,-45.56439304
7.21E+12,-0.24012756,0.040359497,9.586029,-8.85E-04,-0.001434326,0.009094238,8.117676,3.9169312,-44.955444,0.055259366,0.126763291,9.628126408,0.000624393,-0.000917301,0.218427608,7.045078376,3.51680131,-45.62846774
7.21E+12,-0.22842407,0.08175659,9.681503,-3.51E-04,-0.001098633,0.002792358,8.117676,3.9169312,-44.955444,0.025720674,0.118122912,9.623916667,0.000473453,-0.000969004,0.197494271,7.152338138,3.556814299,-45.56116536
7.21E+12,-0.2194519,0.07685852,9.62468,8.09E-04,-0.001098633,-1.22E-04,8.117676,3.9169312,-44.955444,0.000306199,0.11448628,9.6296753,0.000391012,-0.000981967,0.178024079,7.248871925,3.592825989,-45.50059323
7.21E+12,-0.25009155,0.08251953,9.642654,9.31E-04,-0.002075195,6.10E-04,8.117676,3.9169312,-44.955444,-0.021669611,0.110723504,9.62917577,0.000432783,-0.000993633,0.160209464,7.335752332,3.625236511,-45.4460783
7.21E+12,-0.21549988,0.06692505,9.603027,0.002929688,-0.002166748,-2.90E-04,7.9299927,3.5812378,-45.06378,-0.044511805,0.107903106,9.630523593,0.000482583,-0.001101789,0.144249553,7.413944699,3.654405979,-45.39701487
7.21E+12,-0.26109314,0.07571411,9.60379,0.003067017,-0.002166748,-0.00138855,7.9299927,3.5812378,-45.06378,-0.061610612,0.103805301,9.627773934,0.000727294,-0.001208285,0.129795606,7.465549499,3.647089162,-45.36369139
7.21E+12,-0.20593262,0.09812927,9.650635,9.46E-04,-0.003234863,-3.66E-04,7.9299927,3.5812378,-45.06378,-0.081558865,0.100996182,9.62537554,0.000961266,-0.001304131,0.116677191,7.511993819,3.640504025,-45.33370025
7.21E+12,-0.22425842,0.08000183,9.631622,9.31E-04,-0.003234863,-3.66E-04,7.1746826,2.4536133,-45.376587,-0.09399624,0.10070949,9.627901486,0.000959744,-0.001497205,0.10497285,7.553793707,3.634577403,-45.30670822
7.21E+12,-0.24421692,0.062072754,9.674652,-1.07E-04,-0.001144409,6.71E-04,7.1746826,2.4536133,-45.376587,-0.107022458,0.098638724,9.628273538,0.000956848,-0.001670971,0.094438944,7.515882596,3.516480993,-45.3136961
7.21E+12,-0.23168945,0.07029724,9.546997,8.70E-04,-0.002166748,-3.66E-04,7.1746826,2.4536133,-45.376587,-0.120741905,0.094982127,9.632911384,0.000850482,-0.001618314,0.085062188,7.481762597,3.410194223,-45.31998519
7.21E+12,-0.2408905,0.06529236,9.579376,-6.10E-05,-0.002258301,-3.66E-04,7.1746826,2.4536133,-45.376587,-0.131836659,0.092513639,9.624319946,0.000852409,-0.001673158,0.076519349,7.451054597,3.314536131,-45.32564537
7.21E+12,-0.23120117,0.09120178,9.595398,8.09E-04,-0.003128052,-3.66E-04,6.915283,2.7145386,-45.12329,-0.142742043,0.089791511,9.619825551,0.000761065,-0.001731672,0.068830793,7.423417397,3.228443848,-45.33073953
7.21E+12,-0.26812744,0.04776001,9.607452,-1.37E-04,-0.002166748,-2.29E-04,6.915283,2.7145386,-45.12329,-0.151587956,0.089932538,9.617382796,0.00076583,-0.00187131,0.061911092,7.372603958,3.177053323,-45.30999458
7.21E+12,-0.23600769,0.080596924,9.64035,-1.37E-04,-0.002090454,7.02E-04,6.915283,2.7145386,-45.12329,-0.163241904,0.085715285,9.616389716,0.000675514,-0.001900854,0.055697095,7.326871862,3.130801851,-45.29132412
7.21E+12,-0.25073242,0.076797485,9.610886,-3.36E-04,-0.001296997,7.02E-04,6.915283,2.7145386,-45.12329,-0.170518483,0.085203449,9.618785745,0.00059423,-0.001919814,0.050197576,7.285712976,3.089175526,-45.27452071
7.21E+12,-0.24661255,0.058898926,9.656448,-7.93E-04,-0.002166748,9.16E-04,6.864929,2.8625488,-45.362854,-0.178539877,0.084362852,9.61799577,0.000501237,-0.001857532,0.045248009,7.248669978,3.051711833,-45.25939764
7.21E+12,-0.22286987,0.039260864,9.640961,4.43E-04,-0.002410889,0.001296997,6.864929,2.8625488,-45.362854,-0.185347144,0.08181646,9.621840993,0.000371768,-0.001888454,0.040814761,7.21029588,3.03279553,-45.26974328
7.21E+12,-0.22839355,0.024551392,9.622818,-0.001205444,-0.002990723,-3.66E-04,6.864929,2.8625488,-45.362854,-0.189099416,0.0775609,9.623752994,0.000378842,-0.001940697,0.036862984,7.175759192,3.015770857,-45.27905435
7.21E+12,-0.21420288,0.07093811,9.644836,-9.46E-04,-0.002441406,-9.16E-05,6.864929,2.8625488,-45.362854,-0.19302883,0.072259949,9.623659494,0.000220413,-0.0020457,0.033140065,7.144676173,3.000448651,-45.28743431
7.21E+12,-0.23712158,0.059326172,9.653442,1.07E-04,-0.002746582,4.58E-04,6.5811157,3.4973145,-45.698547,-0.195146235,0.072127765,9.625777145,0.000103767,-0.00208527,0.029816903,7.116701456,2.986658666,-45.29497628
7.21E+12,-0.23062134,0.09185791,9.646942,0.00126648,-0.001449585,-3.66E-04,6.5811157,3.4973145,-45.698547,-0.199343769,0.070847606,9.628543631,0.000104072,-0.002151402,0.026880989,7.06314288,3.037724249,-45.33533335
7.21E+12,-0.22727966,0.08792114,9.627869,0.00126648,-0.002166748,-7.17E-04,6.5811157,3.4973145,-45.698547,-0.202471526,0.072948636,9.630383467,0.000220312,-0.00208122,0.024156269,7.014940162,3.083683274,-45.37165472
7.21E+12,-0.23880005,0.06466675,9.666626,-1.37E-04,-0.002563477,-6.56E-04,6.5811157,3.4973145,-45.698547,-0.20495234,0.074445887,9.630132021,0.000324929,-0.002089773,0.021668926,6.971557716,3.125046397,-45.40434395
7.21E+12,-0.2429657,0.07795715,9.653641,2.59E-04,-0.002838135,7.02E-04,6.2286377,4.0878296,-45.12329,-0.208337111,0.073467973,9.633781419,0.000278703,-0.002137143,0.01943642,6.932513514,3.162273207,-45.43376425
7.21E+12,-0.24739075,0.06259155,9.649124,5.19E-04,-0.002166748,7.02E-04,6.2286377,4.0878296,-45.12329,-0.21179997,0.073916891,9.635767377,0.000276773,-0.002207242,0.017562969,6.862125933,3.254828847,-45.40271683
7.21E+12,-0.2344513,0.04310608,9.6584015,2.59E-04,-0.00177002,7.02E-04,6.2286377,4.0878296,-45.12329,-0.215359048,0.072784357,9.637103039,0.000300975,-0.002203193,0.015876862,6.79877711,3.338128922,-45.37477414
7.21E+12,-0.2428894,0.04788208,9.647263,0.001403809,-0.001586914,2.29E-04,6.2286377,4.0878296,-45.12329,-0.217268273,0.069816529,9.639232885,0.000296818,-0.002159876,0.014359367,6.741763169,3.41309899,-45.34962573
7.21E+12,-0.2772522,0.04626465,9.680191,0.001998901,-0.002685547,-3.66E-04,6.2286377,3.8406372,-45.12329,-0.219830386,0.067623084,9.640035897,0.000407517,-0.002102579,0.012946318,6.690450622,3.480572051,-45.32699216
7.21E+12,-1.1274719,-0.2098999,9.676544,0.001449585,-0.00378418,7.17E-04,6.2286377,3.8406372,-45.12329,-0.225572567,0.065487241,9.644051407,0.000566655,-0.002160876,0.011615065,6.64426933,3.516578566,-45.30662194
7.21E+12,-1.4042816,-0.26145935,9.656128,0.001480103,-0.003189087,0.00177002,6.2286377,3.8406372,-45.12329,-0.3157625,0.037948527,9.647300666,0.000654948,-0.002323206,0.010525275,6.602706167,3.548984429,-45.28828875
7.21E+12,-0.6339264,-0.022659302,9.626968,0.001998901,1.53E-05,0.026367188,6.2286377,3.8406372,-45.12329,-0.42461441,0.008007739,9.6481834,0.000737464,-0.002409795,0.009649749,6.56529932,3.578149706,-45.27178887
7.21E+12,-0.6625519,-0.08345032,9.616592,0.001998901,9.46E-04,0.089416504,6.161499,3.3355713,-45.05768,-0.445545609,0.004941035,9.64606186,0.000863608,-0.002167289,0.011321493,6.531633158,3.604398456,-45.25693898
7.21E+12,-0.6888733,-0.14118958,9.716904,0.002624512,-0.003219605,0.13755798,6.161499,3.3355713,-45.05768,-0.467246238,-0.003898101,9.643114874,0.000977137,-0.001855956,0.019130994,6.494619742,3.57751574,-45.23701309
7.21E+12,-0.40338135,-0.12362671,9.650574,0.001739502,-0.002731323,0.16893005,6.161499,3.3355713,-45.05768,-0.489408945,-0.017627249,9.650493786,0.001141874,-0.001992321,0.030973693,6.461307668,3.553321296,-45.21907978
7.21E+12,-0.3092804,0.051483154,9.5143585,-4.43E-04,-4.27E-04,0.21862793,6.161499,3.3355713,-45.05768,-0.480806185,-0.028227195,9.650501808,0.001201637,-0.002066221,0.044769329,6.431326801,3.531546296,-45.2029398
7.21E+12,-0.22613525,0.17132568,9.6358185,2.14E-04,-3.05E-05,0.2587738,6.0562134,3.2302856,-44.955444,-0.463653607,-0.02025616,9.636887477,0.001037223,-0.001902323,0.062155189,6.404344021,3.511948797,-45.18841382
7.21E+12,-0.20140076,0.11932373,9.627396,0.001602173,0.00201416,0.27635193,6.0562134,3.2302856,-44.955444,-0.439901771,-0.001097976,9.636780579,0.000954863,-0.001715143,0.08181705,6.369530959,3.483782477,-45.16511684
7.21E+12,-0.11843872,-0.067092896,9.690338,0.001251221,0.004638672,0.27833557,6.0562134,3.2302856,-44.955444,-0.41605167,0.010944195,9.635842121,0.001019594,-0.001342213,0.101270538,6.338199203,3.458432789,-45.14414955
7.21E+12,0.059951782,0.15649414,9.574844,-0.001449585,0.003723145,0.2686615,6.0562134,3.2302856,-44.955444,-0.386290375,0.003140486,9.641291709,0.001042757,-0.000744124,0.118977041,6.310000623,3.43561807,-45.125279
7.21E+12,-0.25898743,-0.0206604,9.637741,-0.001464844,0.00479126,0.2598877,6.349182,3.2302856,-44.955444,-0.341666159,0.018475851,9.634646938,0.000793522,-0.000297397,0.133945487,6.2846219,3.415084823,-45.1082955
7.21E+12,-0.14593506,-0.15660095,9.598892,-0.001205444,0.005310059,0.2522583,6.349182,3.2302856,-44.955444,-0.333398286,0.014562226,9.634956344,0.000567686,0.000211468,0.146539708,6.29107791,3.396604901,-45.09301035
7.21E+12,-0.198349,-0.08836365,9.707443,-3.51E-04,0.002716065,0.24116516,6.349182,3.2302856,-44.955444,-0.314651964,-0.002554092,9.63134991,0.000390373,0.000721327,0.157111567,6.296888319,3.379972971,-45.07925371
7.21E+12,0.18035889,0.2345581,9.580185,-1.37E-04,4.73E-04,0.24133301,6.349182,3.2302856,-44.955444,-0.303021667,-0.011135047,9.638959219,0.00031624,0.000920801,0.165516927,6.302117687,3.365004234,-45.06687274
7.21E+12,-0.03277588,0.08140564,9.6367035,0.001647949,0.002655029,0.25559998,6.8206787,2.9953003,-45.333862,-0.254683612,0.013434267,9.633081797,0.000270883,0.000876023,0.173098535,6.306824119,3.35153237,-45.05572987
7.21E+12,-0.12936401,0.028442383,9.541855,0.001998901,0.001296997,0.26094055,6.8206787,2.9953003,-45.333862,-0.232492838,0.020231405,9.633443967,0.00040859,0.001053924,0.18134868,6.358209577,3.315909163,-45.08354308
7.21E+12,0.3843689,0.40034485,9.6115265,0.001998901,0.002960205,0.2536316,6.8206787,2.9953003,-45.333862,-0.222179956,0.021052502,9.624285071,0.000567621,0.001078231,0.189307867,6.404456489,3.283848277,-45.10857497
7.21E+12,-0.22120667,0.05506897,9.582123,0.001998901,0.001190186,0.25180054,6.8206787,2.9953003,-45.333862,-0.16152507,0.058981737,9.623009214,0.000710749,0.001266429,0.19574024,6.44607871,3.254993479,-45.13110368
7.21E+12,0.019744873,0.19396973,9.620789,0.001998901,0.003051758,0.22549438,6.915283,2.7145386,-45.79315,-0.16749323,0.05859046,9.618920592,0.000839564,0.001258804,0.20134627,6.483538709,3.229024161,-45.15137951
7.21E+12,0.40480042,0.2540741,9.667801,6.10E-05,0.001235962,0.20083618,6.915283,2.7145386,-45.79315,-0.14876942,0.072128387,9.619107433,0.000955498,0.0014381,0.203761081,6.526713138,3.177575605,-45.21555656
7.21E+12,0.09109497,0.12617493,9.696808,9.16E-04,-3.05E-05,0.17497253,6.915283,2.7145386,-45.79315,-0.093412436,0.090322959,9.62397679,0.000866052,0.001417886,0.203468591,6.565570124,3.131271905,-45.2733159
7.21E+12,-0.017227173,0.14248657,9.581451,9.00E-04,-0.001068115,0.13453674,6.059265,3.227234,-45.458984,-0.074961695,0.093908156,9.631259911,0.000870999,0.001273046,0.200618985,6.600541412,3.089598574,-45.32529931
7.21E+12,-0.19140625,0.092056274,9.612198,-1.37E-04,0.001083374,0.092941284,6.059265,3.227234,-45.458984,-0.069188243,0.098765997,9.62627902,0.000873926,0.001038929,0.19401076,6.546413771,3.103362117,-45.33866778
7.21E+12,-0.20788574,0.11695862,9.597443,-2.14E-04,0.001876831,0.052368164,6.059265,3.227234,-45.458984,-0.081410044,0.098095025,9.624870918,0.000772801,0.001043374,0.183903813,6.497698894,3.115749305,-45.3506994
7.21E+12,-0.22059631,0.097732544,9.607391,-0.00112915,-0.001190186,0.027282715,6.059265,3.227234,-45.458984,-0.094057613,0.099981384,9.622128126,0.000674158,0.00112672,0.170750248,6.453855504,3.126897775,-45.36152786
7.21E+12,-0.2684021,0.10719299,9.640961,-1.07E-04,-0.002166748,0.013275147,5.3771973,3.2058716,-44.59839,-0.106711483,0.0997565,9.620654413,0.000493827,0.000895029,0.156403495,6.414396454,3.136931397,-45.37127348
7.21E+12,-0.2505188,0.07266235,9.634384,9.31E-04,-0.002166748,0.005630493,5.3771973,3.2058716,-44.59839,-0.122880545,0.100500149,9.622685072,0.000433764,0.000588851,0.14209066,6.310676539,3.143825417,-45.29398513
7.21E+12,-0.25154114,0.041641235,9.624664,0.001083374,-0.00201416,0.002349854,5.3771973,3.2058716,-44.59839,-0.13564437,0.097716369,9.623854965,0.000483466,0.000313291,0.128444643,6.217328615,3.150030036,-45.22442562
7.21E+12,-0.2349701,0.035324097,9.59584,0.001800537,-0.001296997,-3.66E-04,5.3771973,3.2058716,-44.59839,-0.147234047,0.092108856,9.623935868,0.000543457,8.05E-05,0.115835164,6.133315483,3.155614192,-45.16182205
7.21E+12,-0.22904968,0.031295776,9.623947,7.02E-04,-0.002166748,-1.37E-04,5.541992,2.7145386,-44.117737,-0.156007652,0.08643038,9.621126281,0.000669165,-5.72E-05,0.104215027,6.057703665,3.160639933,-45.10547885
7.21E+12,-0.25157166,0.05291748,9.6384735,-3.66E-04,-0.001724243,7.02E-04,5.541992,2.7145386,-44.117737,-0.163311855,0.08091692,9.621408353,0.000672439,-0.000268162,0.093779791,6.006132498,3.1160298,-45.00670466
7.21E+12,-0.2592926,0.05027771,9.641678,-0.00100708,-3.05E-05,5.04E-04,5.541992,2.7145386,-44.117737,-0.172137836,0.078116976,9.623114868,0.000568574,-0.00041377,0.084472002,5.959718449,3.07588068,-44.9178079
7.21E+12,-0.2543335,0.032989502,9.625534,1.53E-04,-3.36E-04,-6.10E-05,5.541992,2.7145386,-44.117737,-0.180853312,0.075333049,9.624971181,0.000411008,-0.000375445,0.076075156,5.917945804,3.039746472,-44.83780081
7.21E+12,-0.24186707,0.04673767,9.609161,9.31E-04,-0.001419067,3.97E-04,5.6381226,3.0075073,-44.59381,-0.188201331,0.071098694,9.625027463,0.000385166,-0.00037147,0.068461537,5.880350423,3.007225685,-44.76579443
7.21E+12,-0.25170898,0.07173157,9.613113,9.31E-04,-0.002166748,-1.53E-05,5.6381226,3.0075073,-44.59381,-0.193567905,0.068662592,9.623440817,0.000439728,-0.00047623,0.061655056,5.856127641,3.007253846,-44.74859598
7.21E+12,-0.2686615,0.06311035,9.608902,9.31E-04,-0.001434326,3.36E-04,5.6381226,3.0075073,-44.59381,-0.199382012,0.06896949,9.622408035,0.000488834,-0.000645281,0.055488025,5.834327137,3.007279191,-44.73311739
7.21E+12,-0.25523376,0.070510864,9.621918,5.49E-04,-4.12E-04,-7.32E-04,5.6381226,3.0075073,-44.59381,-0.206309961,0.068383576,9.621057432,0.000533029,-0.000724186,0.049972792,5.814706683,3.007302002,-44.71918665
7.21E+12,-0.26026917,0.08277893,9.620865,-1.37E-04,-0.001464844,-0.001434326,6.42395,2.720642,-45.451355,-0.211202341,0.068596305,9.621143488,0.000534658,-0.000692966,0.04490227,5.797048275,3.007322532,-44.70664898
7.21E+12,-0.25630188,0.0695343,9.629517,0.001190186,-0.002166748,-0.001434326,6.42395,2.720642,-45.451355,-0.216109024,0.070014567,9.62111564,0.000467459,-0.000770154,0.040268611,5.859738447,2.978654479,-44.78111958
7.21E+12,-0.25039673,0.07145691,9.629471,0.002593994,-0.002166748,-9.61E-04,6.42395,2.720642,-45.451355,-0.22012831,0.06996654,9.621955776,0.000539732,-0.000909813,0.036098317,5.916159603,2.952853231,-44.84814313
7.21E+12,-0.25520325,0.076049805,9.617538,0.00100708,-0.001678467,-3.66E-04,6.42395,2.720642,-45.451355,-0.223155152,0.070115577,9.622707298,0.000745158,-0.001035507,0.032392355,5.966938642,2.929632108,-44.90846431
7.21E+12,-0.25906372,0.06756592,9.605698,-1.37E-04,-0.001098633,1.53E-04,6.915283,2.3712158,-45.79315,-0.226359961,0.070709,9.622190368,0.00077135,-0.001099803,0.029116498,6.012639778,2.908733097,-44.96275338
7.21E+12,-0.28077698,0.073394775,9.5885315,8.70E-04,-0.001617432,1.98E-04,6.915283,2.3712158,-45.79315,-0.229630337,0.070394692,9.620541131,0.000680482,-0.001099686,0.026220107,6.1029041,2.854981367,-45.04579304
7.21E+12,-0.24449158,0.077941895,9.58873,3.97E-04,-0.002166748,-8.85E-04,6.915283,2.3712158,-45.79315,-0.234745002,0.0706947,9.617340168,0.000699409,-0.00115146,0.023617933,6.18414199,2.806604811,-45.12052874
7.21E+12,-0.23908997,0.07307434,9.612335,-6.26E-04,-0.002166748,-8.39E-04,6.915283,2.3712158,-45.79315,-0.235719659,0.07141942,9.614479151,0.000669141,-0.001252989,0.021167639,6.257256091,2.76306591,-45.18779087
7.21E+12,-0.26649475,0.053863525,9.639145,0.001083374,-0.002792358,-3.66E-04,7.902527,2.9190063,-45.47119,-0.23605669,0.071584912,9.614264736,0.000539666,-0.001344365,0.018966951,6.323058782,2.723880899,-45.24832678
7.21E+12,-0.27148438,0.06639099,9.627808,7.02E-04,-0.003234863,-0.001647949,7.902527,2.9190063,-45.47119,-0.239100496,0.069812773,9.616752763,0.000594037,-0.001489164,0.017033635,6.481005604,2.743393439,-45.2706131
7.21E+12,-0.24009705,0.051864624,9.602341,-8.09E-04,-0.002578735,-0.001831055,7.902527,2.9190063,-45.47119,-0.242338885,0.069470595,9.617858286,0.000604824,-0.001663734,0.015165477,6.623157744,2.760954725,-45.29067079
7.21E+12,-0.21813965,0.07131958,9.639618,7.63E-05,-0.002166748,-0.001434326,7.902527,2.9190063,-45.47119,-0.242114701,0.067709998,9.616306558,0.00046347,-0.001755234,0.013465824,6.751094669,2.776759882,-45.30872271
7.21E+12,-0.23632813,0.07261658,9.616959,9.31E-04,-0.001480103,-0.001434326,6.867981,2.319336,-45.733643,-0.239717196,0.068070956,9.618637702,0.000424752,-0.001796386,0.011975809,6.866237902,2.790984524,-45.32496944
7.21E+12,-0.23301697,0.063934326,9.618973,0.001663208,-0.001846314,-0.002166748,6.867981,2.319336,-45.733643,-0.23937829,0.068525518,9.618469832,0.000475355,-0.001764757,0.010634795,6.866412212,2.743819672,-45.3658368
7.21E+12,-0.22657776,0.08343506,9.602783,4.58E-04,-0.002944946,-9.61E-04,6.867981,2.319336,-45.733643,-0.238742158,0.068066399,9.618520149,0.000594141,-0.001772913,0.009354641,6.866569091,2.701371305,-45.40261742
7.21E+12,-0.22415161,0.08828735,9.603409,-9.46E-04,-0.002441406,0.001235962,6.867981,2.319336,-45.733643,-0.237525718,0.069603265,9.616946434,0.000580503,-0.001890116,0.008323046,6.866710282,2.663167774,-45.43571998
7.21E+12,-0.24630737,0.084228516,9.607941,-3.97E-04,-0.001358032,-6.71E-04,6.0562134,1.8554688,-45.961,-0.236188307,0.071471674,9.61559269,0.000427848,-0.001945245,0.007614338,6.866837354,2.628784597,-45.46551228
7.21E+12,-0.24884033,0.06585693,9.597168,-9.31E-04,-0.001098633,-0.001434326,6.0562134,1.8554688,-45.961,-0.237200213,0.072747358,9.614827521,0.000345391,-0.001886524,0.006785765,6.785774958,2.551453017,-45.51506105
7.21E+12,-0.29730225,0.0675354,9.622238,4.88E-04,-0.001953125,-0.001434326,6.0562134,1.8554688,-45.961,-0.238364225,0.072058315,9.613061569,0.000217773,-0.001807735,0.005963756,6.712818802,2.481854595,-45.55965494
7.21E+12,-0.2658081,0.08306885,9.646118,-8.70E-04,-0.001281738,-0.001434326,6.0562134,1.8554688,-45.961,-0.244258028,0.071606024,9.613979212,0.000244824,-0.001822274,0.005223948,6.647158262,2.419216016,-45.59978945
7.21E+12,-0.20257568,0.085357666,9.653244,-0.003051758,7.32E-04,-0.002349854,7.395935,1.9775391,-46.080017,-0.246413035,0.072752306,9.617193091,0.000133366,-0.00176822,0.004558121,6.588063776,2.362841294,-45.63591051
7.21E+12,-0.25331116,0.119888306,9.582565,-0.001464844,0.001968384,-0.002502441,7.395935,1.9775391,-46.080017,-0.242029299,0.074012842,9.620798182,-0.000185146,-0.001518156,0.003867323,6.668850898,2.324311075,-45.68032115
7.21E+12,-0.22009277,0.061523438,9.602081,-0.002182007,0.00402832,-0.002502441,7.395935,1.9775391,-46.080017,-0.243157485,0.078600389,9.616974864,-0.000313116,-0.001169502,0.003230347,6.741559309,2.289633877,-45.72029074
7.21E+12,-0.24130249,0.09059143,9.735504,-0.00227356,0.005157471,-0.002502441,7.395935,1.9775391,-46.080017,-0.240851014,0.076892694,9.615485477,-0.000500005,-0.00064972,0.002657068,6.806996878,2.2584244,-45.75626337
7.21E+12,-0.1985321,0.073913574,9.716339,-2.44E-04,0.001235962,-4.58E-04,6.8115234,3.4118652,-45.021057,-0.240896161,0.078262567,9.62748733,-0.00067736,-6.90E-05,0.002141117,6.86589069,2.23033587,-45.78863873
7.21E+12,-0.26927185,0.08546448,9.679764,-1.37E-04,-1.53E-05,-0.001403809,6.8115234,3.4118652,-45.021057,-0.236659755,0.077827668,9.636372497,-0.000634038,6.15E-05,0.001881229,6.860453961,2.348488803,-45.71188056
7.21E+12,-0.33633423,0.10307312,9.643692,-1.53E-04,-3.05E-05,-0.002502441,6.8115234,3.4118652,-45.021057,-0.239920965,0.078591349,9.640711647,-0.000584368,5.38E-05,0.001552725,6.855560905,2.454826442,-45.6427982
7.21E+12,-0.21473694,0.06121826,9.62973,-0.001174927,0,-0.002426148,6.399536,3.9169312,-44.61975,-0.249562291,0.081039526,9.641009682,-0.00054119,4.54E-05,0.001147209,6.851157154,2.550530318,-45.58062408
7.21E+12,-0.22827148,0.05444336,9.722275,-0.001174927,0,-0.002426148,6.399536,3.9169312,-44.61975,-0.246079756,0.0790574,9.639881714,-0.000604563,4.08E-05,0.000789873,6.805995039,2.687170406,-45.48453667
7.21E+12,-0.23565674,0.10383606,9.654953,0.001983643,0.003158569,-3.66E-04,6.399536,3.9169312,-44.61975,-0.244298929,0.076595996,9.648121043,-0.0006616,3.68E-05,0.000468271,6.765349135,2.810146486,-45.39805801
7.21E+12,-0.21238708,0.054840088,9.598358,0.004226685,0.008407593,-0.001434326,6.399536,3.9169312,-44.61975,-0.24343471,0.079320002,9.648804238,-0.000397075,0.000348944,0.000384823,6.728767822,2.920824957,-45.3202272
7.21E+12,-0.21032715,0.072769165,9.603821,0.005325317,0.00730896,-0.001434326,6.9335938,2.5772095,-45.664978,-0.240329947,0.076872011,9.643759615,6.53E-05,0.001154808,0.000202908,6.695844639,3.020435581,-45.25017948
7.21E+12,-0.26838684,0.053604126,9.569351,0.006118774,0.006515503,-0.001434326,6.9335938,2.5772095,-45.664978,-0.237329667,0.076461726,9.639765753,0.000591302,0.001770224,3.92E-05,6.719619555,2.976112973,-45.29165934
7.21E+12,-0.24136353,0.046676636,9.611801,0.005020142,0.007080078,-0.001434326,6.9335938,2.5772095,-45.664978,-0.240435384,0.074175966,9.632724278,0.001144049,0.002244752,-0.000108167,6.74101698,2.936222626,-45.3289912
7.21E+12,-0.23931885,0.038528442,9.619186,0.003936768,0.005111694,-0.001434326,6.9335938,2.5772095,-45.664978,-0.240528199,0.071426033,9.63063195,0.001531659,0.002728284,-0.000240783,6.760274662,2.900321313,-45.36258988
7.21E+12,-0.25628662,0.06567383,9.626587,0.00289917,0.004074097,-0.00126648,7.36084,2.7496338,-45.42389,-0.240407264,0.068136274,9.629487355,0.00177217,0.002966625,-0.000360137,6.777606576,2.868010132,-45.39282869
7.21E+12,-0.23786926,0.05595398,9.597916,0.002227783,0.003173828,-1.22E-04,7.36084,2.7496338,-45.42389,-0.2419952,0.06789003,9.62919732,0.00188487,0.003077372,-0.000450771,6.835929918,2.856172499,-45.39593482
7.21E+12,-0.23039246,0.075149536,9.635773,0.0027771,0.003173828,4.27E-04,7.36084,2.7496338,-45.42389,-0.241582606,0.066696425,9.626069188,0.001919161,0.003087018,-0.000417901,6.888420926,2.845518629,-45.39873034
7.21E+12,-0.22198486,0.065216064,9.607986,0.001693726,0.003173828,-6.10E-05,7.36084,2.7496338,-45.42389,-0.240463591,0.067541736,9.627039569,0.002004955,0.003095699,-0.000333386,6.935662834,2.835930146,-45.40124631
7.21E+12,-0.23991394,0.0770874,9.6128235,5.95E-04,0.003173828,7.02E-04,7.4295044,2.886963,-45.291138,-0.238615718,0.067309169,9.625134212,0.001973832,0.003103512,-0.000306151,6.97818055,2.827300511,-45.40351068
7.21E+12,-0.2290802,0.084625244,9.666275,-1.37E-04,0.002838135,0.001037598,7.4295044,2.886963,-45.291138,-0.23874554,0.068286992,9.623903141,0.001835958,0.003110543,-0.000205346,7.023312935,2.83326676,-45.39227341
7.21E+12,-0.23164368,0.07936096,9.642441,5.04E-04,0.002105713,0.001449585,7.4295044,2.886963,-45.291138,-0.237779006,0.069920817,9.628140327,0.001638629,0.003083303,-8.11E-05,7.063932082,2.838636384,-45.38215987
7.21E+12,-0.24176025,0.074401855,9.666031,0.001998901,0.001693726,3.05E-04,7.4295044,2.886963,-45.291138,-0.237165474,0.070864831,9.629570394,0.00152512,0.002985544,7.20E-05,7.100489314,2.843469046,-45.37305768
7.21E+12,-0.25048828,0.069747925,9.639877,0.001556397,5.95E-04,-7.93E-04,7.4295044,3.1784058,-45.291138,-0.237624951,0.071218534,9.633216455,0.001572498,0.002856362,9.53E-05,7.133390822,2.847818441,-45.36486571
7.21E+12,-0.23756409,0.06048584,9.633942,9.31E-04,4.12E-04,-0.001434326,7.4295044,3.1784058,-45.291138,-0.238911284,0.071071473,9.633882509,0.001570888,0.002630235,6.45E-06,7.16300218,2.880877177,-45.35749294
7.21E+12,-0.23147583,0.06124878,9.625839,4.43E-04,5.49E-04,-0.001434326,7.4295044,3.1784058,-45.291138,-0.238776565,0.070012909,9.633888458,0.001506878,0.00240841,-0.000137628,7.189652402,2.910630039,-45.35085745
7.21E+12,-0.23010254,0.060699463,9.639877,7.93E-04,-3.05E-05,-0.00189209,7.4295044,3.1784058,-45.291138,-0.238046491,0.069136497,9.633083512,0.001400441,0.002222501,-0.000267297,7.213637602,2.937407615,-45.3448855
7.21E+12,-0.23223877,0.064193726,9.644806,0.00151062,-3.05E-05,-0.00201416,8.331299,2.3284912,-45.87555,-0.237252096,0.068292793,9.633762861,0.001339742,0.001997199,-0.000429777,7.235224282,2.961507434,-45.33951075
7.21E+12,-0.23510742,0.07107544,9.612183,3.66E-04,-3.05E-05,-8.70E-04,8.331299,2.3284912,-45.87555,-0.236750763,0.067882886,9.634867175,0.00135683,0.001794427,-0.000588215,7.344831753,2.898205811,-45.39311468
7.21E+12,-0.24150085,0.07107544,9.631348,-7.17E-04,-3.05E-05,-3.66E-04,8.331299,2.3284912,-45.87555,-0.236586429,0.068202142,9.632598758,0.001257768,0.001611933,-0.000616369,7.443478478,2.841234349,-45.44135821
7.21E+12,-0.252594,0.037353516,9.602814,-0.001205444,-6.41E-04,-9.61E-04,8.331299,2.3284912,-45.87555,-0.237077871,0.068489472,9.632473682,0.001060275,0.001447688,-0.000591353,7.53226053,2.789960035,-45.48477739
7.21E+12,-0.26679993,0.043899536,9.597061,-0.001205444,-4.73E-04,-7.93E-04,8.460999,2.2003174,-45.961,-0.238629484,0.065375876,9.629507714,0.000833703,0.001238832,-0.000628348,7.612164377,2.743813151,-45.52385465
7.21E+12,-0.2485199,0.07496643,9.642136,1.53E-05,-6.56E-04,-3.66E-04,8.460999,2.2003174,-45.961,-0.241446529,0.063228242,9.626263042,0.000629788,0.001067647,-0.000644859,7.69704784,2.689463576,-45.56756918
7.21E+12,-0.23857117,0.061782837,9.642075,2.75E-04,-0.001754761,-3.66E-04,8.460999,2.2003174,-45.961,-0.242153866,0.064402061,9.627850338,0.000568335,0.000895269,-0.000616994,7.773442956,2.640548958,-45.60691227
7.21E+12,-0.23776245,0.074798584,9.629883,-1.37E-04,-7.63E-04,-0.00177002,8.460999,2.2003174,-45.961,-0.241795596,0.064140138,9.629272804,0.000538968,0.000630266,-0.000591916,7.84219856,2.596525803,-45.64232104
7.21E+12,-0.22538757,0.06512451,9.656265,-1.37E-04,6.87E-04,-0.00177002,7.0373535,2.357483,-45.49713,-0.241392282,0.065205983,9.629333824,0.000471338,0.000490946,-0.000709726,7.904078604,2.556904962,-45.67418894
7.21E+12,-0.25959778,0.04283142,9.662842,6.10E-04,0.001037598,-0.002182007,7.0373535,2.357483,-45.49713,-0.23979181,0.065197836,9.632026941,0.000410471,0.000510516,-0.000815755,7.817406094,2.536962766,-45.65648304
7.21E+12,-0.25856018,0.046081543,9.639252,9.31E-04,2.44E-04,-0.00328064,7.0373535,2.357483,-45.49713,-0.241772407,0.062961194,9.635108447,0.000430459,0.000563224,-0.000952381,7.739400834,2.519014789,-45.64054774
7.21E+12,-0.23944092,0.029647827,9.580933,0.001678467,-7.93E-04,-0.001312256,7.0373535,2.357483,-45.49713,-0.243451185,0.061273229,9.635522803,0.000480492,0.000531316,-0.001185206,7.669196101,2.502861611,-45.62620596
7.21E+12,-0.2316742,0.06549072,9.644043,0.001998901,-2.90E-04,-3.66E-04,7.2387695,3.3447266,-45.140076,-0.243050158,0.058110689,9.630063822,0.00060029,0.000398838,-0.001197911,7.606011841,2.488323749,-45.61329837
7.21E+12,-0.27030945,0.077804565,9.611877,0.001998901,-9.00E-04,-0.001220703,7.2387695,3.3447266,-45.140076,-0.241912562,0.058848692,9.63146174,0.000740151,0.000329963,-0.001114741,7.569287607,2.573964035,-45.56597613
7.21E+12,-0.280365,0.055908203,9.664291,0.002883911,-2.14E-04,-5.34E-04,7.2387695,3.3447266,-45.140076,-0.244752251,0.060744279,9.629503266,0.000866026,0.00020694,-0.001125338,7.536235796,2.651040291,-45.52338612
7.21E+12,-0.2557068,0.081207275,9.57724,0.002151489,-3.05E-05,-3.66E-04,7.2387695,3.3447266,-45.140076,-0.248313526,0.060260672,9.632982039,0.001067814,0.000164883,-0.00106621,7.506489166,2.720408922,-45.48505511
7.21E+12,-0.24423218,0.10517883,9.587143,0.002929688,-9.77E-04,-0.001296997,7.258606,3.401184,-45.12329,-0.249052853,0.062355332,9.627407836,0.001176182,0.000145343,-0.00099621,7.4797172,2.78284069,-45.4505572
7.21E+12,-0.2513275,0.06135559,9.631027,0.002166748,-0.001098633,-0.001434326,7.258606,3.401184,-45.12329,-0.248570786,0.066637682,9.623381352,0.001351532,3.32E-05,-0.001026288,7.45760608,2.844675021,-45.41783048
7.21E+12,-0.25889587,0.09274292,9.686447,0.001022339,8.39E-04,-0.001434326,7.258606,3.401184,-45.12329,-0.248846457,0.066109473,9.624145917,0.001433054,-8.00E-05,-0.001067092,7.437706072,2.900325919,-45.38837643
7.21E+12,-0.24769592,0.04612732,9.598999,0.001937866,-9.92E-04,-4.12E-04,7.258606,3.401184,-45.12329,-0.249851399,0.068772817,9.630376025,0.001391982,1.19E-05,-0.001103816,7.419796065,2.950411727,-45.36186779
7.21E+12,-0.25450134,0.09692383,9.608505,9.46E-04,-0.002151489,-0.002441406,6.7459106,3.2302856,-45.954895,-0.249635851,0.066508268,9.627238323,0.001446571,-8.85E-05,-0.001034633,7.403677058,2.995488954,-45.33801001
7.21E+12,-0.29159546,0.019927979,9.566666,-1.37E-04,-0.002166748,-0.001434326,6.7459106,3.2302856,-45.954895,-0.2501224,0.069549824,9.62536499,0.001396518,-0.000294774,-0.00117531,7.337900412,3.018968619,-45.39969851
7.21E+12,-0.23516846,0.087646484,9.618591,-1.37E-04,-0.002166748,-0.001434326,6.7459106,3.2302856,-45.954895,-0.254269706,0.064587639,9.619495091,0.001243133,-0.000481971,-0.001201212,7.278701431,3.040100317,-45.45521816
7.21E+12,-0.25543213,0.06452942,9.624191,8.85E-04,-0.001144409,-3.97E-04,6.7459106,3.2302856,-45.954895,-0.252359581,0.066893524,9.619404682,0.001105087,-0.000650449,-0.001224523,7.225422348,3.059118845,-45.50518584
7.21E+12,-0.26904297,0.07345581,9.609009,0.001998901,-0.001098633,-0.001434326,6.7459106,3.2302856,-45.954895,-0.252666836,0.066657113,9.619883314,0.001083079,-0.000699845,-0.001141744,7.177471173,3.076235521,-45.55015676
7.21E+12,-0.26986694,0.06945801,9.617065,0.00189209,-0.001098633,-0.001434326,6.7459106,3.2302856,-45.954895,-0.254304449,0.067336983,9.618795883,0.001174662,-0.000739724,-0.001171002,7.134315116,3.091640529,-45.59063058
7.21E+12,-0.25413513,0.04096985,9.655716,9.31E-04,-0.001220703,-0.001312256,6.7459106,3.2302856,-45.954895,-0.255860699,0.067549086,9.618622794,0.001246404,-0.000775615,-0.001197334,7.095474664,3.105505036,-45.62705702
7.21E+12,-0.22224426,0.066711426,9.6992035,0.001068115,-0.002029419,-3.66E-04,5.541992,2.7145386,-44.117737,-0.255688142,0.064891162,9.622332115,0.001214843,-0.000820123,-0.001208827,7.060518258,3.117983092,-45.65984082
7.21E+12,-0.227005,0.09072876,9.618973,0.001831055,-0.00126648,-5.19E-04,5.541992,2.7145386,-44.117737,-0.252343754,0.065073189,9.630019253,0.00120017,-0.000941053,-0.001124565,6.908665632,3.077638643,-45.50563044
7.21E+12,-0.2223053,0.046951294,9.627686,9.31E-04,-0.002166748,-0.001434326,5.541992,2.7145386,-44.117737,-0.249809878,0.067638746,9.628914628,0.001263258,-0.000973596,-0.001063988,6.771998269,3.041328639,-45.36684109
7.21E+12,-0.24227905,0.06524658,9.574295,7.02E-04,-0.001953125,-0.001434326,5.541992,2.7145386,-44.117737,-0.24705942,0.065570001,9.628791765,0.001230011,-0.001092911,-0.001101022,6.648997642,3.008649635,-45.24193068
7.21E+12,-0.24220276,0.04562378,9.626114,-1.37E-04,-0.001358032,-0.001434326,5.6610107,2.7542114,-44.052124,-0.246581383,0.065537658,9.623342089,0.0011772,-0.001178932,-0.001134353,6.538297078,2.979238531,-45.12951132
7.21E+12,-0.26419067,0.06604004,9.649307,1.22E-04,-0.001907349,-0.001159668,5.6610107,2.7542114,-44.052124,-0.246143521,0.063546271,9.62361928,0.001045748,-0.001196842,-0.00116435,6.45056844,2.956735818,-45.02177258
7.21E+12,-0.24357605,0.06643677,9.608154,0.001220703,-0.001098633,-6.56E-04,5.6610107,2.7542114,-44.052124,-0.247948236,0.063795648,9.626188052,0.00095338,-0.001267893,-0.001163882,6.371612666,2.936483376,-44.92480773
7.21E+12,-0.23335266,0.08087158,9.633423,0.001693726,-0.001403809,-0.00112915,5.6610107,2.7542114,-44.052124,-0.247511017,0.06405976,9.624384647,0.000980112,-0.001250967,-0.001113106,6.300552469,2.918256179,-44.83753935
7.21E+12,-0.26068115,0.067871094,9.606277,9.31E-04,-0.002166748,2.14E-04,8.532715,3.6239624,-42.6651,-0.246095182,0.065740942,9.625288482,0.001051473,-0.001266251,-0.001114711,6.236598292,2.901851701,-44.75899782
7.21E+12,-0.24453735,0.074157715,9.63887,9.31E-04,-0.001800537,3.05E-04,8.532715,3.6239624,-42.6651,-0.247553778,0.065953957,9.623387334,0.001039405,-0.001356301,-0.000981877,6.466209963,2.974062771,-44.54960804
7.21E+12,-0.2345581,0.06536865,9.674088,0.001312256,-0.001098633,-0.002105713,8.532715,3.6239624,-42.6651,-0.247252136,0.066774333,9.6249356,0.001028543,-0.001400724,-0.000853172,6.672860467,3.039052734,-44.36115723
7.21E+12,-0.22618103,0.05239868,9.642899,0.001998901,-0.001098633,-0.001434326,8.532715,3.6239624,-42.6651,-0.245982732,0.066633765,9.62985084,0.001056914,-0.001370515,-0.000978426,6.85884592,3.0975437,-44.19155151
7.21E+12,-0.23490906,0.085876465,9.633438,0.001541138,-6.56E-04,-9.77E-04,7.0861816,1.8554688,-45.961,-0.244002562,0.065210256,9.631155656,0.001151113,-0.001343327,-0.001024016,7.026232828,3.15018557,-44.03890636
7.21E+12,-0.25177002,0.079208374,9.665665,9.31E-04,-3.05E-05,-3.66E-04,7.0861816,1.8554688,-45.961,-0.243093212,0.067276877,9.631383891,0.001190115,-0.001274607,-0.001019271,7.032227705,3.020713893,-44.23111572
7.21E+12,-0.24363708,0.07775879,9.704788,9.31E-04,-3.05E-05,-3.66E-04,7.0861816,1.8554688,-45.961,-0.243960892,0.068470027,9.634812002,0.001164182,-0.001150198,-0.000953965,7.037623095,2.904189384,-44.40410415
7.21E+12,-0.24371338,0.06097412,9.664856,4.12E-04,-5.49E-04,-8.70E-04,7.0861816,1.8554688,-45.961,-0.243928511,0.069398903,9.641809601,0.001140843,-0.00103823,-0.000895189,7.042478945,2.799317326,-44.55979374
7.21E+12,-0.2315216,0.035690308,9.612854,-6.87E-04,-5.65E-04,-0.001434326,7.0098877,1.9302368,-45.88623,-0.243906998,0.068556425,9.644114241,0.001067957,-0.000989339,-0.000892646,7.046849211,2.704932473,-44.69991436
7.21E+12,-0.2539215,0.052093506,9.630142,-0.001785278,-3.05E-05,-0.001998901,7.0098877,1.9302368,-45.88623,-0.242668458,0.065269813,9.640988217,0.000892497,-0.000946862,-0.000946814,7.04315306,2.627462906,-44.81854593
7.21E+12,-0.26052856,0.06925964,9.649033,-0.001083374,5.65E-04,-0.002502441,7.0098877,1.9302368,-45.88623,-0.243793762,0.063952182,9.639903595,0.000624719,-0.000855228,-0.001052022,7.039826524,2.557740295,-44.92531433
7.21E+12,-0.2501068,0.07312012,9.654465,0.00100708,-1.22E-04,-0.001922607,7.0098877,1.9302368,-45.88623,-0.245467242,0.064482928,9.640816536,0.00045391,-0.000713248,-0.001197064,7.036832641,2.494989946,-45.0214059
7.21E+12,-0.2728119,0.06517029,9.648239,0.00138855,-0.001708984,-8.24E-04,6.4224243,2.748108,-45.178223,-0.245931198,0.065346647,9.642181382,0.000509227,-0.00065413,-0.001269619,7.034138147,2.438514631,-45.10788831
7.21E+12,-0.24385071,0.08621216,9.62648,0.001586914,-0.00151062,-3.66E-04,6.4224243,2.748108,-45.178223,-0.248619268,0.065329012,9.642787144,0.000597159,-0.000759615,-0.001225054,6.972966763,2.469473968,-45.11492178
7.21E+12,-0.20349121,0.08029175,9.598755,6.10E-04,-4.12E-04,-3.66E-04,6.4224243,2.748108,-45.178223,-0.248142412,0.067417326,9.64115643,0.000696135,-0.000834716,-0.00113917,6.917912516,2.497337371,-45.1212519
7.21E+12,-0.21328735,0.076049805,9.629379,-1.37E-04,-7.63E-04,-3.66E-04,6.4224243,2.748108,-45.178223,-0.243677292,0.068704769,9.636916287,0.000687557,-0.000792443,-0.001061874,6.868363695,2.522414434,-45.12694901
7.21E+12,-0.24993896,0.07821655,9.624313,0.001342773,-3.66E-04,-0.001098633,6.5719604,4.0878296,-44.45343,-0.240638298,0.069439272,9.636162558,0.000605068,-0.000789493,-0.000992308,6.823769755,2.544983791,-45.13207641
7.21E+12,-0.25888062,0.07130432,9.618515,5.65E-04,-3.05E-05,-0.001434326,6.5719604,4.0878296,-44.45343,-0.241568364,0.070317,9.634977602,0.000678839,-0.000747164,-0.00100294,6.79858882,2.699268372,-45.06421177
7.21E+12,-0.22392273,0.07418823,9.64064,6.26E-04,-8.09E-04,-0.001434326,6.5719604,4.0878296,-44.45343,-0.24329959,0.070415732,9.633331342,0.000667412,-0.0006755,-0.001046079,6.775925978,2.838124494,-45.00313359
7.21E+12,-0.25003052,0.030410767,9.612595,0.001739502,-0.001098633,-0.001434326,6.5719604,4.0878296,-44.45343,-0.241361904,0.070792982,9.634062208,0.000663232,-0.000688821,-0.001084904,6.75552942,2.963095005,-44.94816323
7.21E+12,-0.22633362,0.07106018,9.67363,0.001998901,-2.59E-04,-0.00227356,6.756592,3.8391113,-44.69452,-0.242228765,0.06675476,9.631915487,0.000770859,-0.000729802,-0.001119846,6.737172518,3.075568464,-44.89868991
7.21E+12,-0.2188263,0.06700134,9.659561,0.002868652,-9.16E-04,-0.002502441,6.756592,3.8391113,-44.69452,-0.240639251,0.067185302,9.636086938,0.000893663,-0.000682762,-0.001235217,6.739114466,3.151922748,-44.87827292
7.21E+12,-0.22457886,0.075408936,9.623199,0.00126648,-0.001098633,-0.001602173,6.756592,3.8391113,-44.69452,-0.238457956,0.067166906,9.638434344,0.001091162,-0.000706039,-0.00136194,6.74086222,3.220641603,-44.85989763
7.21E+12,-0.23016357,0.046813965,9.596878,6.10E-05,-2.44E-04,-5.65E-04,6.756592,3.8391113,-44.69452,-0.237070046,0.067991109,9.63691081,0.001108694,-0.000745298,-0.001385963,6.742435198,3.282488573,-44.84335986
7.21E+12,-0.24812317,0.06640625,9.637756,7.93E-04,-9.77E-04,-0.001296997,7.284546,3.0303955,-45.758057,-0.236379399,0.065873395,9.632907529,0.001003928,-0.000695182,-0.001303824,6.743850878,3.338150846,-44.82847588
7.21E+12,-0.28572083,0.06869507,9.684586,9.31E-04,-1.37E-04,-4.58E-04,7.284546,3.0303955,-45.758057,-0.237553776,0.06592668,9.633392376,0.000982881,-0.00072332,-0.001303141,6.79792039,3.307375311,-44.92143399
7.21E+12,-0.27182007,0.07785034,9.68483,9.31E-04,-0.001052856,-3.66E-04,7.284546,3.0303955,-45.758057,-0.242370481,0.066203519,9.638511739,0.000977671,-0.000664721,-0.001218604,6.846582951,3.27967733,-45.00509629
7.21E+12,-0.25709534,0.059402466,9.628326,-1.07E-04,-0.001098633,-0.00138855,7.284546,3.0303955,-45.758057,-0.24531544,0.067368201,9.643143565,0.000972983,-0.000703535,-0.001133364,6.890379256,3.254749147,-45.08039236
7.21E+12,-0.24131775,0.07923889,9.629852,9.16E-04,-4.58E-05,-0.002487183,6.0562134,4.260254,-45.625305,-0.24649343,0.066571628,9.641661808,0.000865003,-0.000743045,-0.001158883,6.92979593,3.232313782,-45.14815883
7.21E+12,-0.25372314,0.08735657,9.585342,9.31E-04,-3.05E-05,-0.001495361,6.0562134,4.260254,-45.625305,-0.245975862,0.067838354,9.640480827,0.000870056,-0.000673318,-0.001291713,6.842437677,3.335107804,-45.19587344
7.21E+12,-0.22808838,0.07476807,9.673111,-0.001205444,-3.05E-05,-0.00138855,6.0562134,4.260254,-45.625305,-0.24675059,0.069790176,9.634966945,0.000876129,-0.000609038,-0.001312078,6.76381525,3.427622424,-45.2388166
7.21E+12,-0.2244873,0.056793213,9.596146,-0.001159668,-1.53E-04,-3.66E-04,6.272888,4.2160034,-45.413208,-0.244884369,0.070287965,9.63878135,0.000667972,-0.000551186,-0.001319725,6.693055065,3.510885581,-45.27746544
7.21E+12,-0.23904419,0.05821228,9.589523,-1.37E-04,-0.002166748,-3.66E-04,6.272888,4.2160034,-45.413208,-0.242844662,0.06893849,9.634517815,0.000485208,-0.000511326,-0.001224374,6.651038358,3.581397363,-45.29103969
7.21E+12,-0.26956177,0.070251465,9.59993,-1.37E-04,-0.001968384,-3.66E-04,6.272888,4.2160034,-45.413208,-0.242464615,0.067865869,9.630018334,0.000422954,-0.000676868,-0.001138557,6.613223322,3.644857967,-45.30325653
7.21E+12,-0.25569153,0.06321716,9.678223,2.29E-04,-1.68E-04,-3.66E-04,6.272888,4.2160034,-45.413208,-0.24517433,0.068104428,9.6270095,0.000366926,-0.00080602,-0.001061323,6.57918979,3.70197251,-45.31425167
7.21E+12,-0.24145508,0.059188843,9.658981,0.00289917,-0.001098633,-2.75E-04,6.8206787,3.5217285,-44.69452,-0.24622605,0.067615702,9.63213085,0.000353121,-0.000742202,-0.000991811,6.548559611,3.753375599,-45.32414731
