timestamp,accel_x,accel_y,accel_z,gyro_x,gyro_y,gyro_z,mag_x,mag_y,mag_z,EWMA accel_x,EWMA accel_y,EWMA accel_z,EWMA gyro_x,EWMA gyro_y,EWMA gyro_z,EWMA mag_x,EWMA mag_y,EWMA mag_z
4.71E+12,-1.0392914,1.8793793,8.739746,0,0,0,0,0,0,#N/A,#N/A,#N/A,#N/A,#N/A,#N/A,#N/A,#N/A,#N/A
4.71E+12,-1.1896515,1.9681702,8.929367,-0.20135498,0.23478699,-0.21360779,0,0,0,-1.0392914,1.8793793,8.739746,0,0,0,0,0,0
4.71E+12,-1.2612305,1.9304352,9.41069,-0.22703552,0.17553711,-0.19003296,0,0,0,-1.05432741,1.88825839,8.7587081,-0.020135498,0.023478699,-0.021360779,0,0,0
4.71E+12,-1.322586,1.8239899,9.995331,-0.24101257,0.10745239,-0.16567993,0,0,0,-1.075017719,1.892476071,8.82390629,-0.0408255,0.03868454,-0.038227997,0,0,0
4.71E+12,-1.4107513,1.7140198,10.620209,-0.23396301,0.03616333,-0.14207458,19.392395,6.4208984,-50.654602,-1.099774547,1.885627454,8.941048761,-0.060844207,0.045561325,-0.05097319,0,0,0
4.71E+12,-1.3833618,1.6423798,11.2276,-0.20166016,-0.04034424,-0.11618042,19.392395,6.4208984,-50.654602,-1.130872222,1.868466689,9.108964785,-0.078156087,0.044621526,-0.060083329,1.9392395,0.64208984,-5.0654602
4.71E+12,-1.209137,1.6149902,11.588974,-0.13928223,-0.10798645,-0.08534241,19.392395,6.4208984,-50.654602,-1.15612118,1.845858,9.320828306,-0.090506495,0.036124949,-0.065693038,3.68455505,1.219970696,-9.62437438
4.71E+12,-1.0046692,1.655365,11.582321,-0.055404663,-0.14978027,-0.053253174,19.392395,6.4208984,-50.654602,-1.161422762,1.82277122,9.547642876,-0.095384068,0.021713809,-0.067657976,5.255339045,1.740063466,-13.72739714
4.71E+12,-0.8788452,1.7333832,11.311905,0.043121338,-0.16062927,-0.022201538,19.522095,6.678772,-51.913452,-1.145747406,1.806030598,9.751110688,-0.091386128,0.004564401,-0.066217495,6.669044641,2.20814696,-17.42011763
4.71E+12,-0.8295288,1.8530426,10.973923,0.13877869,-0.13711548,0.002655029,19.522095,6.678772,-51.913452,-1.119057185,1.798765858,9.907190119,-0.077935381,-0.011954966,-0.0618159,7.954349676,2.655209464,-20.86945107
4.71E+12,-0.7411194,2.0161743,10.58963,0.21006775,-0.09069824,0.01927185,19.522095,6.678772,-51.913452,-1.090104347,1.804193532,10.01386341,-0.056263974,-0.024471017,-0.055368807,9.111124209,3.057565717,-23.97385116
4.71E+12,-0.6082916,2.1537933,10.2164,0.25735474,-0.027175903,0.03413391,19.522095,6.678772,-51.913452,-1.055205852,1.825391609,10.07144007,-0.029630802,-0.03109374,-0.047904741,10.15222129,3.419686346,-26.76781124
4.71E+12,-0.56085205,2.2372437,9.819687,0.27685547,0.049331665,0.047088623,19.638062,6.0943604,-49.97711,-1.010514427,1.858231778,10.08593606,-0.000932247,-0.030701956,-0.039700876,11.08920866,3.745594911,-29.28237532
4.71E+12,-0.6239166,2.330246,9.493698,0.27261353,0.12696838,0.055007935,19.638062,6.0943604,-49.97711,-0.965548189,1.89613297,10.05931115,0.026846524,-0.022698594,-0.031021926,11.94409399,3.98047146,-31.35184879
4.71E+12,-0.7113037,2.3342743,9.265778,0.25524902,0.19537354,0.057388306,19.638062,6.0943604,-49.97711,-0.93138503,1.939544273,10.00274984,0.051423225,-0.007731896,-0.02241894,12.71349079,4.191860354,-33.21437491
4.71E+12,-0.6900177,2.3409576,8.992447,0.233078,0.24017334,0.05419922,19.638062,6.0943604,-49.97711,-0.909376897,1.979017276,9.929052655,0.071805804,0.012578647,-0.014438215,13.40594791,4.382110359,-34.89064842
4.71E+12,-0.6861725,2.3958282,8.748306,0.21884155,0.25430298,0.051712036,20.518494,5.937195,-50.561523,-0.887440978,2.015211308,9.835392089,0.087933024,0.035338116,-0.007574472,14.02915932,4.553335363,-36.39929458
4.71E+12,-0.6981201,2.4538116,8.4713745,0.210495,0.23852539,0.050323486,20.518494,5.937195,-50.561523,-0.86731413,2.053272997,9.72668348,0.101023877,0.057234603,-0.001645821,14.67809279,4.691721326,-37.81551742
4.71E+12,-0.77160645,2.4292297,8.153641,0.21313477,0.19407654,0.048294067,20.518494,5.937195,-50.561523,-0.850394727,2.093326858,9.601152582,0.111970989,0.075363682,0.00355111,15.26213291,4.816268694,-39.09011798
4.71E+12,-0.8197174,2.4904633,7.794632,0.21939087,0.127182,0.045166016,20.518494,5.937195,-50.561523,-0.842515899,2.126917142,9.456401424,0.122087367,0.087234967,0.008025405,15.78776902,4.928361324,-40.23725848
4.71E+12,-0.88557434,2.5144196,7.5152893,0.22692871,0.04449463,0.0438385,20.895386,5.9921265,-51.24359,-0.840236049,2.163271758,9.290224482,0.131817717,0.091229671,0.011739466,16.26084152,5.029244692,-41.26968493
4.71E+12,-0.9069519,2.5999756,7.3792114,0.22857666,-0.04727173,0.047714233,20.895386,5.9921265,-51.24359,-0.844769878,2.198386542,9.112730964,0.141328817,0.086556167,0.01494937,16.72429597,5.125532873,-42.26707544
4.71E+12,-0.94389343,2.6549377,7.2689056,0.22013855,-0.13380432,0.054626465,20.895386,5.9921265,-51.24359,-0.85098808,2.238545448,8.939379007,0.150053601,0.073173377,0.018225856,17.14140497,5.212192236,-43.16472689
4.71E+12,-0.8948517,2.7442322,7.328171,0.19616699,-0.21907043,0.06588745,20.895386,5.9921265,-51.24359,-0.860278615,2.280184673,8.772331666,0.157062096,0.052475607,0.021865917,17.51680307,5.290185662,-43.9726132
4.71E+12,-0.8430481,2.7594757,7.6235046,0.15708923,-0.28308105,0.08111572,19.360352,6.7581177,-50.24414,-0.863735924,2.326589426,8.6279156,0.160972585,0.025321004,0.02626807,17.85466137,5.360379746,-44.69971088
4.71E+12,-0.7442932,2.8121033,7.8940125,0.10812378,-0.32965088,0.094192505,19.360352,6.7581177,-50.24414,-0.861667141,2.369878053,8.5274745,0.16058425,-0.005519202,0.031752835,18.00523043,5.500153541,-45.2541538
4.71E+12,-0.67674255,2.8379364,8.168396,0.0592041,-0.3640747,0.1081543,19.360352,6.7581177,-50.24414,-0.849929747,2.414100578,8.4641283,0.155338203,-0.03793237,0.037996802,18.14074259,5.625949957,-45.75315242
4.71E+12,-0.65200806,2.8126068,8.598846,0.018585205,-0.38417053,0.11567688,18.190002,5.0872803,-50.531006,-0.832611028,2.45648416,8.43455507,0.145724792,-0.070546603,0.045012552,18.26270353,5.739166731,-46.20225117
4.71E+12,-0.63442993,2.7051697,8.907166,-0.010742188,-0.39523315,0.12173462,18.190002,5.0872803,-50.531006,-0.814550731,2.492096424,8.450984163,0.133010834,-0.101908995,0.052078985,18.25543337,5.673978088,-46.63512666
4.71E+12,-0.52601624,2.6207123,9.101822,-0.03236389,-0.39227295,0.1257019,18.190002,5.0872803,-50.531006,-0.796538651,2.513403752,8.496602347,0.118635532,-0.131241411,0.059044548,18.24889024,5.615308309,-47.02471459
4.71E+12,-0.37876892,2.6653748,9.140457,-0.04598999,-0.3713684,0.1335907,18.190002,5.0872803,-50.531006,-0.76948641,2.524134606,8.557124312,0.103535589,-0.157344565,0.065710284,18.24300141,5.562505508,-47.37534373
4.71E+12,-0.26315308,2.739441,9.14798,-0.05583191,-0.33035278,0.14312744,17.977905,4.446411,-50.74005,-0.730414661,2.538258626,8.615457581,0.088583031,-0.178746948,0.072498325,18.23770147,5.514982988,-47.69090996
4.71E+12,-0.066711426,2.8613281,9.090851,-0.066604614,-0.27201843,0.15022278,17.977905,4.446411,-50.74005,-0.683688503,2.558376863,8.668709823,0.074141537,-0.193907531,0.079561237,18.21172183,5.408125789,-47.99582396
4.71E+12,0.05886841,2.9611511,9.061707,-0.08239746,-0.20796204,0.15299988,17.977905,4.446411,-50.74005,-0.621990795,2.588671987,8.71092394,0.060066922,-0.201718621,0.086627391,18.18834014,5.31195431,-48.27024657
4.71E+12,0.2548828,3.0224304,9.052124,-0.10151672,-0.14916992,0.14805603,17.977905,4.446411,-50.74005,-0.553904874,2.625919898,8.746002246,0.045820484,-0.202342963,0.09326464,18.16729663,5.225399979,-48.51722691
4.71E+12,0.40423584,3.0382233,9.056976,-0.12388611,-0.09512329,0.13586426,19.08722,5.555725,-51.01013,-0.473026107,2.665570948,8.776614422,0.031086764,-0.197025659,0.098743779,18.14835747,5.147501081,-48.73950922
4.71E+12,0.55659485,3.0677185,9.064514,-0.13505554,-0.06352234,0.117614746,19.08722,5.555725,-51.01013,-0.385299912,2.702836184,8.80465058,0.015589476,-0.186835422,0.102455827,18.24224372,5.188323473,-48.9665713
4.71E+12,0.73117065,3.1360474,9.061813,-0.13395691,-0.0541687,0.09472656,19.08722,5.555725,-51.01013,-0.291110436,2.739324415,8.830636922,0.000524975,-0.174504114,0.103971719,18.32674135,5.225063626,-49.17092717
4.71E+12,0.80326843,3.120163,9.026474,-0.12121582,-0.06460571,0.06437683,19.08722,5.555725,-51.01013,-0.188882327,2.778996714,8.853754529,-0.012923214,-0.162470572,0.103047203,18.40278921,5.258129763,-49.35484745
4.71E+12,0.820755,3.0730286,8.886795,-0.101745605,-0.08598328,0.029678345,19.070435,4.1412354,-50.801086,-0.089667252,2.813113342,8.871026476,-0.023752474,-0.152684086,0.099180166,18.47123229,5.287889287,-49.52037571
4.71E+12,0.79797363,3.052353,8.723465,-0.08073425,-0.11427307,-0.006256104,19.070435,4.1412354,-50.801086,0.001374973,2.839104868,8.872603329,-0.031551788,-0.146014006,0.092229984,18.53115256,5.173223898,-49.64844674
4.71E+12,0.716629,2.9994354,8.611862,-0.05973816,-0.14755249,-0.045715332,19.070435,4.1412354,-50.801086,0.081034839,2.860429681,8.857689496,-0.036470034,-0.142839912,0.082381375,18.58508081,5.070025048,-49.76371066
4.71E+12,0.61650085,2.9361572,8.479919,-0.05104065,-0.17152405,-0.08305359,19.070435,4.1412354,-50.801086,0.144594255,2.874330253,8.833106746,-0.038796846,-0.14331117,0.069571704,18.63361623,4.977146083,-49.8674482
4.71E+12,0.49969482,2.8843231,8.456467,-0.05342102,-0.18746948,-0.11778259,19.007874,3.7597656,-50.74005,0.191784915,2.880512948,8.797787972,-0.040021227,-0.146132458,0.054309175,18.6772981,4.893555015,-49.96081198
4.71E+12,0.46733093,2.8624725,8.575516,-0.06843567,-0.19488525,-0.14820862,19.007874,3.7597656,-50.74005,0.222575905,2.880893963,8.763655875,-0.041361206,-0.15026616,0.037099998,18.71035569,4.780176074,-50.03873578
4.71E+12,0.47044373,2.8260803,8.722534,-0.09213257,-0.19056702,-0.17198181,19.007874,3.7597656,-50.74005,0.247051408,2.879051817,8.744841887,-0.044068652,-0.154728069,0.018569136,18.74010752,4.678135026,-50.1088672
4.71E+12,0.4972992,2.7116394,8.822815,-0.12080383,-0.17045593,-0.18972778,19.007874,3.7597656,-50.74005,0.26939064,2.873754665,8.742611098,-0.048875044,-0.158311964,-0.000485958,18.76688417,4.586298084,-50.17198548
4.71E+12,0.5164032,2.6366577,8.848236,-0.1503601,-0.13168335,-0.20240784,18.556213,5.407715,-50.886536,0.292181496,2.857543139,8.750631489,-0.056067923,-0.159526361,-0.01941014,18.79098315,4.503644835,-50.22879193
4.71E+12,0.47373962,2.5932465,8.86557,-0.17874146,-0.08087158,-0.2111206,18.556213,5.407715,-50.886536,0.314603666,2.835454595,8.76039194,-0.065497141,-0.15674206,-0.03770991,18.76750614,4.594051852,-50.29456634
4.71E+12,0.40116882,2.5640717,8.848679,-0.20489502,-0.018814087,-0.21705627,18.556213,5.407715,-50.886536,0.330517262,2.811233785,8.770909746,-0.076821572,-0.149155012,-0.055050979,18.74637682,4.675418167,-50.35376331
4.71E+12,0.28829956,2.5197906,8.84581,-0.23008728,0.04963684,-0.21961975,18.556213,5.407715,-50.886536,0.337582418,2.786517577,8.778686671,-0.089628917,-0.136120919,-0.071251508,18.72736044,4.74864785,-50.40704057
4.71E+12,0.18623352,2.4901886,8.87471,-0.25401306,0.117004395,-0.21777344,17.134094,6.100464,-51.64337,0.332654132,2.759844879,8.785399004,-0.103674753,-0.117545143,-0.086088333,18.7102457,4.814554565,-50.45499012
4.71E+12,0.14480591,2.4735107,8.93837,-0.27700806,0.186203,-0.2066803,17.134094,6.100464,-51.64337,0.318012071,2.732879251,8.794330104,-0.118708584,-0.094090189,-0.099256843,18.55263053,4.943145508,-50.57382811
4.71E+12,0.118927,2.3979187,9.013687,-0.2955017,0.24861145,-0.18713379,17.134094,6.100464,-51.64337,0.300691455,2.706942396,8.808734093,-0.134538532,-0.066060871,-0.109999189,18.41077688,5.058877358,-50.68078229
4.71E+12,0.09379578,2.3681183,9.057907,-0.3032074,0.29603577,-0.16293335,17.134094,6.100464,-51.64337,0.282515009,2.676040026,8.829229384,-0.150634849,-0.034593638,-0.117712649,18.28310859,5.163036022,-50.77704107
4.71E+12,0.12852478,2.4542084,9.138794,-0.30007935,0.32929993,-0.13748169,16.946411,6.163025,-51.745605,0.263643086,2.645247854,8.852097146,-0.165892104,-0.001530698,-0.122234719,18.16820713,5.25677882,-50.86367396
4.71E+12,0.32237244,2.6209106,9.14856,-0.28320313,0.34518433,-0.11088562,16.946411,6.163025,-51.745605,0.250131256,2.626143908,8.880766831,-0.179310828,0.031552365,-0.123759416,18.04602752,5.347403438,-50.95186706
4.71E+12,0.5812988,2.8124084,9.11525,-0.25398254,0.33969116,-0.08494568,16.946411,6.163025,-51.745605,0.257355374,2.625620578,8.907546148,-0.189700059,0.062915562,-0.122472037,17.93606586,5.428965594,-51.03124086
4.71E+12,0.81851196,2.976181,8.939606,-0.21200562,0.31103516,-0.06297302,16.946411,6.163025,-51.745605,0.289749717,2.64429936,8.928316533,-0.196128307,0.090593121,-0.118719401,17.83710038,5.502371535,-51.10267727
4.71E+12,0.9199524,3.1425781,8.694595,-0.16427612,0.25854492,-0.054519653,18.395996,6.968689,-50.331116,0.342625941,2.677487524,8.92944548,-0.197716038,0.112637325,-0.113144763,17.74803144,5.568436881,-51.16697004
4.71E+12,0.8877716,3.1987915,8.577209,-0.1186676,0.19148254,-0.060928345,18.395996,6.968689,-50.331116,0.400358587,2.723996581,8.905960432,-0.194372046,0.127228085,-0.107282252,17.8128279,5.708462093,-51.08338464
4.71E+12,0.7687988,3.3012085,8.399231,-0.07911682,0.11326599,-0.07923889,18.395996,6.968689,-50.331116,0.449099888,2.771476073,8.873085289,-0.186801602,0.13365353,-0.102646861,17.87114471,5.834484784,-51.00815778
4.71E+12,0.66244507,3.3318481,8.288223,-0.050476074,0.03060913,-0.1000061,18.395996,6.968689,-50.331116,0.481069779,2.824449316,8.82569986,-0.176033123,0.131614776,-0.100306064,17.92362984,5.947905205,-50.9404536
4.71E+12,0.5652313,3.3082428,8.235687,-0.037612915,-0.04673767,-0.11769104,18.492126,6.6986084,-51.49536,0.499207308,2.875189194,8.771952174,-0.163477418,0.121514212,-0.100276068,17.97086645,6.049983585,-50.87951984
4.71E+12,0.3885193,3.2973022,8.329086,-0.037002563,-0.13150024,-0.13362122,18.492126,6.6986084,-51.49536,0.505809708,2.918494555,8.718325656,-0.150890968,0.104689023,-0.102017565,18.02299241,6.114846066,-50.94110385
4.71E+12,0.12496948,3.197174,8.396179,-0.053344727,-0.20445251,-0.14701843,18.492126,6.6986084,-51.49536,0.494080667,2.956375319,8.679401691,-0.139502128,0.081070097,-0.10517793,18.06990577,6.1732223,-50.99652947
4.71E+12,-0.12687683,3.0503235,8.694855,-0.0796814,-0.2687683,-0.1543274,18.492126,6.6986084,-51.49536,0.457169548,2.980455187,8.651079422,-0.130886388,0.052517836,-0.10936198,18.11212779,6.22576091,-51.04641252
4.71E+12,-0.3033905,2.976059,8.92868,-0.11579895,-0.31707764,-0.15196228,18.492126,6.678772,-51.57776,0.39876491,2.987442019,8.65545698,-0.125765889,0.020389223,-0.113858522,18.15012761,6.273045659,-51.09130727
4.71E+12,-0.31596375,2.949112,9.059967,-0.15808105,-0.34280396,-0.1375122,18.492126,6.678772,-51.57776,0.328549369,2.986303717,8.682779282,-0.124769195,-0.013357463,-0.117668898,18.18432745,6.313618293,-51.13995254
4.71E+12,-0.18725586,2.9794312,9.284363,-0.19869995,-0.3478241,-0.11364746,18.492126,6.678772,-51.57776,0.264098057,2.982584545,8.720498053,-0.12810038,-0.046302113,-0.119653228,18.2151073,6.350133664,-51.18373329
4.71E+12,0.028762817,3.053299,9.527451,-0.24923706,-0.33137512,-0.08163452,18.492126,6.678772,-51.57776,0.218962666,2.982269211,8.776884548,-0.135160337,-0.076454312,-0.119052651,18.24280917,6.382997497,-51.22313596
4.71E+12,0.22982788,3.2201233,9.705368,-0.2985382,-0.29748535,-0.05317688,18.492126,6.678772,-51.57776,0.199942681,2.98937219,8.851941193,-0.14656801,-0.101946393,-0.115310838,18.26774086,6.412574947,-51.25859836
4.71E+12,0.45700073,3.4045258,9.814377,-0.34754944,-0.25120544,-0.030548096,18.492126,6.678772,-51.57776,0.202931201,3.012447301,8.937283874,-0.161765029,-0.121500288,-0.109097442,18.29017937,6.439194653,-51.29051453
4.71E+12,0.668808,3.4696045,9.92215,-0.3895111,-0.19673157,-0.018218994,18.492126,6.678772,-51.57776,0.228338154,3.051655151,9.024993187,-0.18034347,-0.134470804,-0.101242508,18.31037403,6.463152387,-51.31923907
4.71E+12,0.8415375,3.5808868,10.033936,-0.42268372,-0.14178467,-0.019241333,19.856262,7.3623657,-51.24359,0.272385138,3.093450086,9.114708868,-0.201260233,-0.14069688,-0.092940156,18.32854923,6.484714349,-51.34509117
4.71E+12,0.7928467,3.623169,10.090347,-0.4468689,-0.09738159,-0.032791138,19.856262,7.3623657,-51.24359,0.329300374,3.142193757,9.206631581,-0.223402582,-0.140805659,-0.085570274,18.48132051,6.572479484,-51.33494105
4.71E+12,0.7591553,3.615448,10.074783,-0.4644165,-0.06121826,-0.061294556,19.856262,7.3623657,-51.24359,0.375655007,3.190291281,9.295003123,-0.245749213,-0.136463252,-0.08029236,18.61881466,6.651468105,-51.32580595
4.71E+12,0.6404877,3.527771,10.149704,-0.47052002,-0.039108276,-0.09068298,19.856262,7.3623657,-51.24359,0.414005036,3.232806953,9.372981111,-0.267615942,-0.128938753,-0.07839258,18.74255939,6.722557865,-51.31758435
4.71E+12,0.52612305,3.4278107,10.180145,-0.4654541,-0.031539917,-0.11985779,17.289734,6.5063477,-51.411438,0.436653303,3.262303358,9.4506534,-0.28790635,-0.119955705,-0.07962162,18.85392965,6.786538648,-51.31018492
4.71E+12,0.34588623,3.320877,10.187576,-0.44909668,-0.04273987,-0.14608765,17.289734,6.5063477,-51.411438,0.445600277,3.278854092,9.52360256,-0.305661125,-0.111114126,-0.083645237,18.69751009,6.758519554,-51.32031022
4.71E+12,0.13703918,3.2056274,10.144165,-0.42303467,-0.061035156,-0.16577148,17.289734,6.5063477,-51.411438,0.435628873,3.283056383,9.589999904,-0.32000468,-0.104276701,-0.089889478,18.55673248,6.733302368,-51.329423
4.71E+12,-0.014556885,3.1459808,10.013229,-0.39727783,-0.08227539,-0.17504883,17.289734,6.5063477,-51.411438,0.405769903,3.275313485,9.645416413,-0.330307679,-0.099952546,-0.097477678,18.43003263,6.710606901,-51.3376245
4.71E+12,-0.11961365,3.1284943,10.017761,-0.3703308,-0.10227966,-0.17097473,17.304993,6.5063477,-51.379395,0.363737225,3.262380216,9.682197672,-0.337004694,-0.098184831,-0.105234794,18.31600277,6.690180981,-51.34500585
4.71E+12,-0.16397095,3.1666412,10.032684,-0.34680176,-0.11810303,-0.15698242,17.304993,6.5063477,-51.379395,0.315402137,3.248991624,9.715754005,-0.340337305,-0.098594314,-0.111808787,18.21490179,6.671797653,-51.34844477
4.71E+12,-0.072006226,3.1960602,10.02594,-0.32112122,-0.13070679,-0.13908386,17.304993,6.5063477,-51.379395,0.267464828,3.240756582,9.747447004,-0.34098375,-0.100545185,-0.116326151,18.12391091,6.655252658,-51.35153979
4.71E+12,0.03302002,3.2402344,9.965363,-0.29244995,-0.138443,-0.11723328,17.304993,6.5063477,-51.379395,0.233517723,3.236286944,9.775296304,-0.338997497,-0.103561346,-0.118601921,18.04201912,6.640362162,-51.35432531
4.71E+12,0.0973053,3.2376862,9.895142,-0.26055908,-0.14242554,-0.09625244,17.713928,6.6314697,-50.750732,0.213467953,3.236681689,9.794302973,-0.334342743,-0.107049511,-0.118465057,17.96831651,6.626960716,-51.35683228
4.71E+12,0.18348694,3.2068787,9.819687,-0.22592163,-0.14186096,-0.07673645,17.713928,6.6314697,-50.750732,0.201851687,3.236782141,9.804386876,-0.326964376,-0.110587114,-0.116243796,17.94287766,6.627411614,-51.29622225
4.71E+12,0.272583,3.198532,9.637421,-0.18536377,-0.13565063,-0.057266235,17.713928,6.6314697,-50.750732,0.200015213,3.233791796,9.805916889,-0.316860102,-0.113714499,-0.112293061,17.91998269,6.627817423,-51.24167323
4.71E+12,0.37516785,3.2574768,9.406204,-0.14428711,-0.123062134,-0.039978027,17.713928,6.6314697,-50.750732,0.207271991,3.230265817,9.7890673,-0.303710469,-0.115908112,-0.106790378,17.89937722,6.628182651,-51.1925791
4.71E+12,0.48336792,3.2697601,9.094681,-0.104385376,-0.10316467,-0.026062012,18.83545,8.395386,-50.907898,0.224061577,3.232986915,9.75078097,-0.287768133,-0.116623514,-0.100109143,17.8808323,6.628511355,-51.14839439
4.71E+12,0.53201294,3.322586,8.825867,-0.068878174,-0.08180237,-0.014526367,18.83545,8.395386,-50.907898,0.249992212,3.236664234,9.685170973,-0.269429857,-0.11527763,-0.09270443,17.97629407,6.80519882,-51.12434475
4.71E+12,0.5418701,3.3621063,8.620697,-0.04069519,-0.060806274,-0.005355835,18.83545,8.395386,-50.907898,0.278194284,3.24525641,9.599240575,-0.249374689,-0.111930104,-0.084886624,18.06220966,6.964217538,-51.10270008
4.71E+12,0.5208893,3.381134,8.508133,-0.016494751,-0.039993286,0.001739502,18.83545,8.395386,-50.907898,0.304561866,3.256941399,9.501386218,-0.228506739,-0.106817721,-0.076933545,18.1395337,7.107334384,-51.08321987
4.71E+12,0.48799133,3.3880463,8.464432,0.005065918,-0.02178955,0.007461548,18.739319,8.604431,-50.96283,0.326194609,3.269360659,9.402060896,-0.20730554,-0.100135277,-0.06906624,18.20912533,7.236139546,-51.06568768
4.71E+12,0.4699707,3.4145508,8.374649,0.029190063,-0.01222229,0.010696411,18.739319,8.604431,-50.96283,0.342374281,3.281229223,9.308298007,-0.186068394,-0.092300704,-0.061413461,18.26214469,7.372968691,-51.05540192
4.71E+12,0.55010986,3.5202637,8.212219,0.061798096,-0.015441895,0.012878418,18.739319,8.604431,-50.96283,0.355133923,3.294561381,9.214933106,-0.164542549,-0.084292863,-0.054202474,18.30986213,7.496114922,-51.04614472
4.71E+12,0.69963074,3.658722,8.115845,0.104400635,-0.03337097,0.01689148,18.739319,8.604431,-50.96283,0.374631517,3.317131613,9.114661695,-0.141908484,-0.077407766,-0.047494385,18.35280781,7.60694653,-51.03781325
4.71E+12,0.848053,3.756485,8.097458,0.15242004,-0.064575195,0.016799927,17.887878,9.924316,-51.322937,0.407131439,3.351290652,9.014780026,-0.117277572,-0.073004087,-0.041055798,18.39145893,7.706694977,-51.03031493
4.71E+12,1.0136719,3.8368835,7.9806366,0.2078247,-0.1025238,0.008010864,17.887878,9.924316,-51.322937,0.451223595,3.391810086,8.923047823,-0.090307811,-0.072161197,-0.035270226,18.34110084,7.928457079,-51.05957713
4.71E+12,1.2587891,3.9231262,7.7191772,0.26768494,-0.13256836,-0.007781982,17.887878,9.924316,-51.322937,0.507468426,3.436317428,8.828806701,-0.06049456,-0.075197458,-0.030942117,18.29577855,8.128042971,-51.08591312
4.71E+12,1.4982758,3.993744,7.430588,0.32466125,-0.15238953,-0.028839111,17.887878,9.924316,-51.322937,0.582600493,3.484998305,8.717843751,-0.02767661,-0.080934548,-0.028626103,18.2549885,8.307670274,-51.10961551
4.71E+12,1.6164398,4.080551,7.055893,0.37239075,-0.16842651,-0.059936523,17.289734,7.536316,-50.74005,0.674168024,3.535872875,8.589118176,0.007557176,-0.088080046,-0.028647404,18.21827745,8.469334847,-51.13094766
4.71E+12,1.6086273,4.12442,6.7445984,0.41220093,-0.18292236,-0.10391235,17.289734,7.536316,-50.74005,0.768395201,3.590340687,8.435795658,0.044040533,-0.096114693,-0.031776316,18.1254231,8.376032962,-51.09185789
4.71E+12,1.4972534,4.1529236,6.3927,0.43980408,-0.19277954,-0.15542603,17.289734,7.536316,-50.74005,0.852418411,3.643748618,8.266675932,0.080856573,-0.104795459,-0.03898992,18.04185419,8.292061266,-51.0566771
4.71E+12,1.4192047,4.1217346,6.120056,0.44995117,-0.1947174,-0.2106781,17.289734,7.536316,-50.74005,0.91690191,3.694666117,8.079278339,0.116751324,-0.113593867,-0.050633531,17.96664217,8.216486739,-51.02501439
4.71E+12,1.4315948,4.101074,6.1466827,0.43836975,-0.19277954,-0.25836182,17.411804,7.902527,-50.85907,0.967132189,3.737372965,7.883356105,0.150071308,-0.121706221,-0.066637987,17.89895136,8.148469665,-50.99651795
4.71E+12,1.4242401,4.038162,6.147049,0.4041748,-0.19145203,-0.2979126,17.411804,7.902527,-50.85907,1.01357845,3.773743068,7.709688765,0.178901153,-0.128813553,-0.085810371,17.85023662,8.123875399,-50.98277316
4.71E+12,1.333313,3.8829803,6.256653,0.35430908,-0.18334961,-0.33268738,17.411804,7.902527,-50.85907,1.054644615,3.800184962,7.553424788,0.201428517,-0.1350774,-0.107020594,17.80639336,8.101740559,-50.97040284
4.71E+12,1.2476501,3.7831879,6.265045,0.29486084,-0.15740967,-0.36106873,17.411804,7.902527,-50.85907,1.082511454,3.808464495,7.423747609,0.216716574,-0.139904621,-0.129587272,17.76693442,8.081819203,-50.95926956
4.71E+12,1.2619934,3.6760101,6.22435,0.23291016,-0.11845398,-0.3782196,17.875671,9.42688,-51.44348,1.099025318,3.805936836,7.307877348,0.224531,-0.141655126,-0.152735418,17.73142138,8.063889983,-50.9492496
4.71E+12,1.159256,3.6437378,6.2103424,0.15853882,-0.0652771,-0.38789368,17.875671,9.42688,-51.44348,1.115322127,3.792944162,7.199524614,0.225368916,-0.139335012,-0.175283836,17.74584634,8.200188984,-50.99867264
4.71E+12,0.9007721,3.6240082,6.42749,0.08125305,-0.014511108,-0.38885498,17.875671,9.42688,-51.44348,1.119715514,3.778023526,7.100606392,0.218685907,-0.13192922,-0.196544821,17.75882881,8.322858086,-51.04315338
4.71E+12,0.5868225,3.5750732,6.8047333,-0.002349854,0.03186035,-0.38587952,17.875671,9.42688,-51.44348,1.097821172,3.762621993,7.033294753,0.204942621,-0.120187409,-0.215775837,17.77051303,8.433260277,-51.08318604
4.71E+12,0.354599,3.5772095,7.208786,-0.086639404,0.06768799,-0.37854004,17.462158,8.7387085,-51.57776,1.046721305,3.743867114,7.010438608,0.184213373,-0.104982633,-0.232786205,17.78102882,8.53262225,-51.11921544
4.71E+12,0.19578552,3.5421295,7.5160675,-0.16007996,0.097335815,-0.3667755,17.462158,8.7387085,-51.57776,0.977509075,3.727201353,7.030273347,0.157128096,-0.087715571,-0.247361588,17.74914174,8.553230875,-51.16506989
4.71E+12,0.06513977,3.5131683,8.022461,-0.21365356,0.12095642,-0.3456726,17.462158,8.7387085,-51.57776,0.899336719,3.708694167,7.078852762,0.12540729,-0.069210432,-0.25930298,17.72044337,8.571778637,-51.2063389
4.71E+12,0.13195801,3.5213776,8.546661,-0.25650024,0.13552856,-0.31367493,17.503357,8.612061,-51.53656,0.815917024,3.689141581,7.173213586,0.091501205,-0.050193747,-0.267939942,17.69461483,8.588471624,-51.24348101
4.71E+12,0.41841125,3.5552979,9.04834,-0.27400208,0.12857056,-0.27973938,17.503357,8.612061,-51.53656,0.747521123,3.672365183,7.310558327,0.056701061,-0.031621516,-0.27251344,17.67548905,8.590830561,-51.27278891
4.71E+12,0.704895,3.6335602,9.279327,-0.26060486,0.11109924,-0.24659729,17.503357,8.612061,-51.53656,0.714610136,3.660658454,7.484336495,0.023630747,-0.015602309,-0.273236034,17.65827584,8.592953605,-51.29916602
4.71E+12,0.9036865,3.7467499,9.309326,-0.22076416,0.09275818,-0.22465515,17.503357,8.612061,-51.53656,0.713638622,3.657948629,7.663835545,-0.004792814,-0.002932154,-0.27057216,17.64278396,8.594864345,-51.32290542
4.71E+12,0.9711609,3.8964233,9.138184,-0.16279602,0.07762146,-0.21600342,17.544556,8.132935,-51.150513,0.73264341,3.666828756,7.828384591,-0.026389949,0.00663688,-0.265980459,17.62884126,8.59658401,-51.34427088
4.71E+12,1.1462402,4.002899,8.845917,-0.101882935,0.06315613,-0.21833801,17.544556,8.132935,-51.150513,0.756495159,3.68978821,7.959364532,-0.040030556,0.013735338,-0.260982755,17.62041274,8.550219109,-51.32489509
4.71E+12,1.3724365,4.039154,8.735764,-0.04006958,0.04171753,-0.22817993,17.544556,8.132935,-51.150513,0.795469663,3.721099289,8.048019778,-0.046215794,0.018677417,-0.256718281,17.61282706,8.508490698,-51.30745688
4.71E+12,1.4666595,3.9923553,8.770645,0.003097534,0.018295288,-0.2434082,17.544556,8.132935,-51.150513,0.853166347,3.75290476,8.116794201,-0.045601172,0.020981428,-0.253864446,17.60599996,8.470935128,-51.29176249
4.71E+12,1.5136261,3.9378967,8.815704,0.032089233,0.001968384,-0.2692566,17.289734,7.8796387,-50.405884,0.914515662,3.776849814,8.182179281,-0.040731302,0.020712814,-0.252818821,17.59985556,8.437135116,-51.27763754
4.71E+12,1.3787537,3.84935,8.917664,0.047805786,-0.002563477,-0.29994202,17.289734,7.8796387,-50.405884,0.974426706,3.792954503,8.245531752,-0.033449248,0.018838371,-0.254462599,17.56884341,8.381385474,-51.19046219
4.71E+12,1.2299957,3.5648804,9.124527,0.055007935,0.003463745,-0.33459473,17.289734,7.8796387,-50.405884,1.014859405,3.798594053,8.312744977,-0.025323745,0.016698186,-0.259010541,17.54093246,8.331210797,-51.11200437
4.71E+12,1.0771484,3.3185577,9.257065,0.05647278,0.022842407,-0.36712646,17.289734,7.8796387,-50.405884,1.036373035,3.775222687,8.39392318,-0.017290577,0.015374742,-0.26656896,17.51581262,8.286053587,-51.04139233
4.71E+12,0.8597412,3.190155,9.278412,0.05531311,0.06309509,-0.39074707,16.972351,8.407593,-50.405884,1.040450571,3.729556189,8.480237362,-0.009914241,0.016121509,-0.27662471,17.49320476,8.245412098,-50.9778415
4.71E+12,0.62101746,3.1886444,9.248413,0.05455017,0.106933594,-0.39814758,16.972351,8.407593,-50.405884,1.022379634,3.67561607,8.560054825,-0.003391506,0.020818867,-0.288036946,17.44111938,8.261630188,-50.92064575
4.71E+12,0.349411,3.2350006,9.195557,0.052856445,0.15093994,-0.39401245,16.972351,8.407593,-50.405884,0.982243417,3.626918903,8.628890643,0.002402662,0.02943034,-0.299048009,17.39424254,8.27622647,-50.86916957
4.71E+12,0.001800537,3.2235107,9.172058,0.04701233,0.1907196,-0.38233948,16.972351,8.407593,-50.405884,0.918960175,3.587727073,8.685557279,0.00744804,0.0415813,-0.308544453,17.35205339,8.289363123,-50.82284102
4.71E+12,-0.60069275,3.1297913,9.025894,0.040985107,0.22084045,-0.36810303,16.148376,9.484863,-51.164246,0.827244211,3.551305435,8.734207351,0.011404469,0.05649513,-0.315923956,17.31408315,8.30118611,-50.78114532
4.71E+12,-0.8307648,3.148529,9.0807495,0.03387451,0.24246216,-0.34677124,16.148376,9.484863,-51.164246,0.684450515,3.509154022,8.763376016,0.014362533,0.072929662,-0.321141863,17.19751243,8.419553799,-50.81945538
4.71E+12,-0.5561676,3.2842255,9.496689,0.019378662,0.25222778,-0.30775452,16.148376,9.484863,-51.164246,0.532928984,3.47309152,8.795113364,0.01631373,0.089882911,-0.323704801,17.09259879,8.526084719,-50.85393445
4.71E+12,-0.20236206,3.494522,9.93251,-9.92E-04,0.240448,-0.25793457,16.148376,9.484863,-51.164246,0.424019325,3.454204918,8.865270928,0.016620224,0.106117398,-0.322109773,16.99817651,8.621962547,-50.8849656
4.71E+12,-0.011886597,3.6431274,10.134689,-0.020553589,0.21388245,-0.21081543,15.916443,9.25293,-52.75116,0.361381187,3.458236626,8.971994835,0.014859019,0.119550459,-0.315692253,16.91319646,8.708252593,-50.91289364
4.71E+12,0.07417297,3.6459808,10.177948,-0.031295776,0.18704224,-0.17852783,15.916443,9.25293,-52.75116,0.324054408,3.476725703,9.088264251,0.011317758,0.128983658,-0.30520457,16.81352111,8.762720333,-51.09672028
4.71E+12,0.13619995,3.5592957,10.264923,-0.035095215,0.15736389,-0.16226196,15.916443,9.25293,-52.75116,0.299066265,3.493651213,9.197232626,0.007056405,0.134789516,-0.292536896,16.7238133,8.8117413,-51.26216425
4.71E+12,0.12931824,3.4902496,10.389725,-0.035232544,0.11331177,-0.15808105,15.916443,9.25293,-52.75116,0.282779633,3.500215662,9.304001664,0.002841243,0.137046953,-0.279509403,16.64307627,8.85586017,-51.41106382
4.71E+12,0.11526489,3.4739532,10.61763,-0.030090332,0.047470093,-0.16035461,16.171265,9.124756,-52.25067,0.267433494,3.499219055,9.412573997,-0.000966136,0.134673435,-0.267366567,16.57041295,8.895567153,-51.54507344
4.71E+12,0.1298523,3.407318,10.994476,-0.022460938,-0.03630066,-0.16014099,16.171265,9.124756,-52.25067,0.252216633,3.49669247,9.533079598,-0.003878555,0.125953101,-0.256665372,16.53049815,8.918486038,-51.6156331
4.71E+12,0.1387024,3.2780457,11.513824,-0.012954712,-0.1328888,-0.15548706,16.171265,9.124756,-52.25067,0.2399802,3.487755023,9.679219238,-0.005736794,0.109727725,-0.247012934,16.49457484,8.939113034,-51.67913679
4.71E+12,0.13230896,3.1311035,12.069855,-1.07E-04,-0.22819519,-0.14828491,16.171265,9.124756,-52.25067,0.22985242,3.466784091,9.862679714,-0.006458586,0.085466072,-0.237860346,16.46224385,8.957677331,-51.73629011
4.71E+12,0.12779236,2.975006,12.527466,0.016571045,-0.2992096,-0.13973999,16.668701,8.842468,-51.0849,0.220098074,3.433216032,10.08339724,-0.005823408,0.054099946,-0.228902803,16.43314597,8.974385198,-51.7877281
4.71E+12,0.17788696,2.8632507,12.917282,0.036499023,-0.34057617,-0.12646484,16.668701,8.842468,-51.0849,0.210867503,3.387395028,10.32780412,-0.003583963,0.018768991,-0.219986521,16.45670147,8.961193478,-51.71744529
4.71E+12,0.26649475,2.8117065,13.233826,0.05239868,-0.3461151,-0.10722351,16.668701,8.842468,-51.0849,0.207569448,3.334980596,10.58675191,0.000424336,-0.017165525,-0.210634353,16.47790142,8.94932093,-51.65419076
4.71E+12,0.31729126,2.8841553,13.469955,0.063308716,-0.32408142,-0.08572388,16.668701,8.842468,-51.0849,0.213461979,3.282653186,10.85145932,0.00562177,-0.050060482,-0.200293269,16.49698138,8.938635637,-51.59726168
4.71E+12,0.4728241,3.0854797,13.742523,0.07463074,-0.28556824,-0.06468201,16.775513,8.7387085,-50.572205,0.223844907,3.242803397,11.11330888,0.011390465,-0.077462576,-0.18883633,16.51415334,8.929018873,-51.54602552
4.71E+12,0.63804626,3.2700043,13.993027,0.08743286,-0.23277283,-0.050964355,16.775513,8.7387085,-50.572205,0.248742826,3.227071028,11.3762303,0.017714492,-0.098273142,-0.176420898,16.54028931,8.909987836,-51.44864346
4.71E+12,0.505188,3.3533478,14.036316,0.10508728,-0.17150879,-0.04812622,16.775513,8.7387085,-50.572205,0.287673169,3.231364355,11.63790997,0.024686329,-0.111723111,-0.163875244,16.56381168,8.892859902,-51.36099962
4.71E+12,0.31498718,3.226654,13.804779,0.129776,-0.08528137,-0.057022095,16.775513,8.7387085,-50.572205,0.309424652,3.243562699,11.87775057,0.032726424,-0.117701679,-0.152300341,16.58498181,8.877444762,-51.28212016
4.71E+12,0.24006653,2.961441,13.371384,0.15188599,0.022628784,-0.06752014,16.85028,8.963013,-50.645447,0.309980905,3.241871829,12.07045341,0.042431382,-0.114459648,-0.142772517,16.60403493,8.863571136,-51.21112864
4.71E+12,0.02722168,2.671051,12.856995,0.15864563,0.15078735,-0.07122803,16.85028,8.963013,-50.645447,0.302989468,3.213828747,12.20054647,0.053376843,-0.100750805,-0.135247279,16.62865944,8.873515322,-51.15456048
4.71E+12,-0.2850647,2.3148956,12.529907,0.14128113,0.28883362,-0.06982422,16.85028,8.963013,-50.645447,0.275412689,3.159550972,12.26619132,0.063903721,-0.075596989,-0.128845354,16.65082149,8.88246509,-51.10364913
4.71E+12,-0.7176361,2.117096,12.213409,0.09635925,0.42697144,-0.06764221,16.85028,8.963013,-50.645447,0.21936495,3.075085435,12.29256289,0.071641462,-0.039153929,-0.122943241,16.67076734,8.890519881,-51.05782892
4.71E+12,-1.1852112,1.9928131,11.98407,0.036239624,0.5533447,-0.061203003,17.100525,9.872437,-50.58899,0.125664845,2.979286491,12.2846475,0.074113241,0.007458608,-0.117413138,16.68871861,8.897769193,-51.01659072
4.71E+12,-1.6383972,1.9115448,11.954056,-0.044525146,0.6872101,-0.045455933,17.100525,9.872437,-50.58899,-0.005422759,2.880639152,12.25458975,0.070325879,0.062047218,-0.111792124,16.72989925,8.995235974,-50.97383065
4.71E+12,-1.9332275,2.0013733,12.141052,-0.12789917,0.7921295,-0.02394104,17.100525,9.872437,-50.58899,-0.168720204,2.783729717,12.22453638,0.058840777,0.124563506,-0.105158505,16.76696182,9.082956076,-50.93534659
4.71E+12,-2.1419678,2.1154022,12.431671,-0.20147705,0.865921,0.005950928,17.100525,9.872437,-50.58899,-0.345170933,2.705494075,12.21618794,0.040166782,0.191320105,-0.097036759,16.80031814,9.161904169,-50.90071093
4.71E+12,-2.321991,2.2743225,12.57132,-0.2539673,0.9079437,0.034500122,17.289734,10.627747,-50.405884,-0.52485062,2.646484888,12.23773625,0.016002399,0.258780195,-0.08673799,16.83033883,9.232957452,-50.86953884
4.71E+12,-2.5272522,2.2663116,12.498093,-0.28175354,0.92697144,0.06173706,17.289734,10.627747,-50.405884,-0.704564658,2.609268649,12.27109462,-0.010994571,0.323696545,-0.074614179,16.87627834,9.372436407,-50.82317335
4.71E+12,-2.6927643,2.0661469,12.426865,-0.2879486,0.9220581,0.08605957,17.289734,10.627747,-50.405884,-0.886833412,2.574972944,12.29379446,-0.038070468,0.384024035,-0.060979055,16.91762391,9.497967466,-50.78144442
4.71E+12,-2.7767944,1.9445038,12.489975,-0.27589417,0.882843,0.119903564,17.289734,10.105896,-50.743103,-1.067426501,2.52409034,12.30710151,-0.063058281,0.437827441,-0.046275192,16.95483492,9.610945419,-50.74388837
4.71E+12,-2.8298645,1.8401794,12.56221,-0.2566986,0.8101349,0.15859985,17.289734,10.105896,-50.743103,-1.238363291,2.466131686,12.32538886,-0.08434187,0.482328997,-0.029657317,16.98832483,9.660440477,-50.74380984
4.71E+12,-2.7524872,1.8757629,12.817184,-0.22763062,0.7119751,0.2038269,17.289734,10.105896,-50.743103,-1.397513412,2.403536457,12.34907098,-0.101577543,0.515109587,-0.0108316,17.01846574,9.70498603,-50.74373915
4.71E+12,-2.5441284,1.8931732,13.19902,-0.18798828,0.597641,0.2566681,17.289734,10.105896,-50.743103,-1.533010791,2.350759101,12.39588228,-0.114182851,0.534796139,0.01063425,17.04559257,9.745077027,-50.74367554
4.71E+12,-2.2698822,1.848587,13.3233185,-0.1353302,0.4811554,0.31181335,18.530273,9.063721,-50.21057,-1.634122551,2.305000511,12.47619605,-0.121563394,0.541080625,0.035237635,17.07000671,9.781158924,-50.74361828
4.71E+12,-2.0371704,1.8889923,13.12796,-0.07040405,0.37983704,0.3646698,18.530273,9.063721,-50.21057,-1.697698516,2.25935916,12.5609083,-0.122940074,0.535088102,0.062895206,17.21603334,9.709415132,-50.69031346
4.71E+12,-1.7444,1.9833069,12.756638,0.008865356,0.28204346,0.41870117,18.530273,9.063721,-50.21057,-1.731645705,2.222322474,12.61761347,-0.117686472,0.519562996,0.093072666,17.34745731,9.644845718,-50.64233911
4.71E+12,-1.3209229,2.0254364,12.45546,0.07946777,0.2056427,0.4644165,18.530273,9.063721,-50.21057,-1.732921134,2.198420917,12.63151592,-0.105031289,0.495811042,0.125635516,17.46573888,9.586733247,-50.5991622
4.71E+12,-0.9002991,2.1871796,12.221756,0.1337738,0.13664246,0.50749207,19.694519,8.566284,-49.40033,-1.691721311,2.181122465,12.61391033,-0.086581383,0.466794208,0.159513615,17.57219229,9.534432022,-50.56030298
4.71E+12,-0.54875183,2.4218292,12.078766,0.16592407,0.07783508,0.5416565,19.694519,8.566284,-49.40033,-1.61257909,2.181728179,12.57469489,-0.064545865,0.433779033,0.19431146,17.78442496,9.43761722,-50.44430568
4.71E+12,-0.22789001,2.6308746,11.875778,0.17662048,0.036392212,0.5616455,19.694519,8.566284,-49.40033,-1.506196364,2.205738281,12.525102,-0.041498871,0.398184638,0.229045964,17.97543436,9.350483898,-50.33990811
4.71E+12,0.025466919,2.7588654,11.603409,0.16889954,0.014602661,0.5663452,19.694519,8.566284,-49.40033,-1.378365728,2.248251913,12.4601696,-0.019686936,0.362005395,0.262305918,18.14734283,9.272063908,-50.2459503
4.71E+12,0.1929779,2.838852,11.337158,0.13757324,0.011795044,0.5520477,19.79065,9.054565,-49.876404,-1.237982464,2.299313261,12.37449354,-0.000828289,0.327265122,0.292709846,18.30206044,9.201485917,-50.16138827
4.71E+12,0.31414795,2.8429108,11.242004,0.091430664,0.02178955,0.5225067,19.79065,9.054565,-49.876404,-1.094886427,2.353267135,12.27075999,0.013011864,0.295718114,0.318643631,18.4509194,9.186793825,-50.13288984
4.71E+12,0.3197174,2.7690582,11.165344,0.031951904,0.036376953,0.48382568,19.79065,9.054565,-49.876404,-0.95398299,2.402231502,12.16788439,0.020853744,0.268325258,0.339029938,18.58489246,9.173570943,-50.10724126
4.71E+12,0.2102356,2.649994,11.2057495,-0.03250122,0.048706055,0.43959045,19.79065,9.054565,-49.876404,-0.826612951,2.438914172,12.06763035,0.02196356,0.245130427,0.353509512,18.70546821,9.161670349,-50.08415753
4.71E+12,0.06286621,2.4519806,11.3155365,-0.09310913,0.058166504,0.3922882,19.865417,9.225464,-50.62561,-0.722928096,2.460022154,11.98144227,0.016517082,0.22548799,0.362117606,18.81398639,9.150959814,-50.06338218
4.71E+12,-0.21183777,2.179657,11.537857,-0.14506531,0.06373596,0.3449402,19.865417,9.225464,-50.62561,-0.644348665,2.459217999,11.91485169,0.005554461,0.208755841,0.365134666,18.91912945,9.158410232,-50.11960496
4.71E+12,-0.52368164,1.9269409,11.723221,-0.18043518,0.06512451,0.29734802,19.865417,9.225464,-50.62561,-0.601097575,2.431261899,11.87715222,-0.009507516,0.194253853,0.363115219,19.01375821,9.165115609,-50.17020547
4.71E+12,-0.8301239,1.662384,11.680237,-0.19030762,0.063705444,0.26411438,19.865417,9.225464,-50.62561,-0.593355982,2.380829799,11.8617591,-0.026600283,0.181340919,0.356538499,19.09892409,9.171150448,-50.21574592
4.71E+12,-1.1725006,1.3956909,11.48465,-0.17489624,0.057907104,0.24694824,19.865417,9.082031,-50.907898,-0.617032774,2.308985219,11.84360689,-0.042971016,0.169577371,0.347296087,19.17557338,9.176581803,-50.25673233
4.71E+12,-1.4066162,1.2044373,11.30278,-0.13761902,0.047073364,0.24502563,19.865417,9.082031,-50.907898,-0.672579556,2.217655787,11.8077112,-0.056163539,0.158410345,0.337261302,19.24455774,9.167126723,-50.32184889
4.71E+12,-1.4745178,1.1087341,11.185501,-0.09013367,0.032348633,0.25953674,19.865417,9.082031,-50.907898,-0.745983221,2.116333939,11.75721808,-0.064309087,0.147276647,0.328037735,19.30664367,9.158617151,-50.38045381
4.71E+12,-1.4617157,1.0319214,11.227005,-0.03767395,0.01109314,0.29058838,19.865417,9.082031,-50.907898,-0.818836679,2.015573955,11.70004637,-0.066891545,0.135783845,0.321187636,19.362521,9.150958536,-50.43319822
4.71E+12,-1.4484863,1.0240326,11.1489105,0.023117065,-0.014312744,0.33143616,19.429016,8.427429,-49.420166,-0.883124581,1.917208699,11.65274223,-0.063969786,0.123314775,0.31812771,19.4128106,9.144065782,-50.4806682
4.71E+12,-1.4050293,1.0986481,10.728836,0.09303284,-0.03451538,0.37153625,19.429016,8.427429,-49.420166,-0.939660753,1.827891089,11.60235906,-0.055261101,0.109552023,0.319458555,19.41443114,9.072402104,-50.37461798
4.71E+12,-1.1545715,1.2202759,10.137344,0.17224121,-0.049423218,0.41212463,19.429016,8.427429,-49.420166,-0.986197607,1.75496679,11.51500676,-0.040431706,0.095145283,0.324666325,19.41588963,9.007904794,-50.27917278
4.71E+12,-0.9008179,1.4091034,9.504013,0.25135803,-0.063827515,0.45089722,19.429016,8.427429,-49.420166,-1.003034997,1.701497701,11.37724048,-0.019164415,0.080688433,0.333412155,19.41720226,8.949857214,-50.19327211
4.71E+12,-0.69918823,1.6729584,8.821152,0.31651306,-0.08744812,0.4806366,20.173645,8.825684,-48.884583,-0.992813287,1.672258271,11.18991773,0.00788783,0.066236838,0.345160662,19.41838364,8.897614393,-50.1159615
4.71E+12,-0.34848022,1.8995056,8.128204,0.36746216,-0.11920166,0.4994812,20.173645,8.825684,-48.884583,-0.963450781,1.672328284,10.95304116,0.038750353,0.050868342,0.358708255,19.49390977,8.890421353,-49.99282365
4.71E+12,-0.07557678,2.0817413,7.5234222,0.3927002,-0.15156555,0.5055542,20.173645,8.825684,-48.884583,-0.901953725,1.695046016,10.67055744,0.071621533,0.033861342,0.37278555,19.5618833,8.883947618,-49.88199958
4.71E+12,0.28172302,2.3370667,7.0892944,0.39059448,-0.1862793,0.4948883,20.173645,8.825684,-48.884583,-0.819316031,1.733715544,10.35584392,0.1037294,0.015318653,0.386062415,19.62305947,8.878121256,-49.78225792
4.71E+12,0.639801,2.5385742,6.678299,0.3605652,-0.21990967,0.46687317,20.724487,9.25293,-49.064636,-0.709212126,1.79405066,10.02918897,0.132415908,-0.004841143,0.396945003,19.67811802,8.872877531,-49.69249043
4.71E+12,0.82914734,2.6004944,6.3964233,0.2998352,-0.24386597,0.4188385,20.724487,9.25293,-49.064636,-0.574310813,1.868503014,9.69409997,0.155230837,-0.026347995,0.40393782,19.78275492,8.910882778,-49.62970499
4.71E+12,0.74720764,2.6029816,6.270447,0.21636963,-0.24583435,0.3582611,20.724487,9.25293,-49.064636,-0.433964998,1.941702152,9.364332303,0.169691274,-0.048099793,0.405427888,19.87692813,8.9450875,-49.57319809
4.71E+12,0.6226654,2.5180054,6.4059143,0.10038757,-0.22468567,0.27641296,20.724487,9.25293,-49.064636,-0.315847734,2.007830097,9.054943773,0.174359109,-0.067873249,0.400711209,19.96168401,8.97587175,-49.52234188
4.71E+12,0.49461365,2.3992462,6.6858063,-0.0287323,-0.1885376,0.19055176,19.644165,8.174133,-50.115967,-0.221996421,2.058847627,8.790040825,0.166961955,-0.083554491,0.388281384,20.03796431,9.003577575,-49.47657129
4.71E+12,0.36904907,2.1889038,7.033127,-0.15705872,-0.15026855,0.10974121,19.644165,8.174133,-50.115967,-0.150335414,2.092887485,8.579617373,0.14739253,-0.094052802,0.368508422,19.99858438,8.920633117,-49.54051086
4.71E+12,0.17175293,1.9023132,7.2991486,-0.2722168,-0.111953735,0.032592773,19.644165,8.174133,-50.115967,-0.098396965,2.102489116,8.424968336,0.116947405,-0.099674376,0.342631701,19.96314244,8.845983106,-49.59805648
4.71E+12,-0.018035889,1.7184448,7.4240417,-0.36740112,-0.07572937,-0.03514099,19.644165,8.174133,-50.115967,-0.071381976,2.082471525,8.312386362,0.078030984,-0.100902312,0.311627808,19.9312447,8.778798095,-49.64984753
4.71E+12,-0.2533722,1.4839935,7.7816772,-0.433609,-0.047409058,-0.08938599,19.541931,7.58667,-50.216675,-0.066047367,2.046068852,8.223551896,0.033487774,-0.098385018,0.276950928,19.90253673,8.718331586,-49.69645948
4.71E+12,-0.48927307,1.3153381,8.027206,-0.48846436,-0.022140503,-0.13760376,19.541931,7.58667,-50.216675,-0.08477985,1.989861317,8.179364426,-0.013221904,-0.093287422,0.240317236,19.86647616,8.605165427,-49.74848103
4.71E+12,-0.6843109,1.0251007,8.561157,-0.51452637,-0.014282227,-0.17131042,19.541931,7.58667,-50.216675,-0.125229172,1.922408995,8.164148584,-0.060746149,-0.08617273,0.202525137,19.83402164,8.503315884,-49.79530043
4.71E+12,-0.87939453,0.7629547,8.823883,-0.51582336,-0.02116394,-0.19378662,19.541931,7.58667,-50.216675,-0.181137345,1.832678166,8.203849425,-0.106124171,-0.07898368,0.165141581,19.80481258,8.411651296,-49.83743788
4.71E+12,-1.2121277,0.43397522,8.911926,-0.4861145,-0.036254883,-0.20613098,19.694519,7.536316,-50.07019,-0.250963064,1.725705819,8.265852783,-0.14709409,-0.073201706,0.129248761,19.77852442,8.329153166,-49.87536159
4.71E+12,-1.6613159,0.1315155,8.781006,-0.4861145,-0.036254883,-0.20613098,19.694519,7.536316,-50.07019,-0.347079527,1.596532759,8.330460104,-0.180996131,-0.069507024,0.095710787,19.77012388,8.24986945,-49.89484444
4.71E+12,-1.8715973,-0.011199951,8.586029,-0.35542297,-0.061553955,-0.19403076,19.694519,7.536316,-50.07019,-0.478503164,1.450031033,8.375514694,-0.211507968,-0.06618181,0.06552661,19.76256339,8.178514105,-49.91237899
4.71E+12,-2.0245667,0.07397461,8.350952,-0.2752533,-0.06813049,-0.14448547,19.432068,8.584595,-50.837708,-0.617812578,1.303907935,8.396566125,-0.225899468,-0.065719024,0.039570873,19.75575895,8.114294294,-49.92816009
4.71E+12,-2.0142517,0.33636475,7.9937744,-0.20462036,-0.085250854,-0.08248901,19.432068,8.584595,-50.837708,-0.75848799,1.180914602,8.392004712,-0.230834851,-0.065960171,0.021165239,19.72338986,8.161324365,-50.01911488
4.71E+12,-1.7023773,0.5211334,7.773651,-0.1408844,-0.1113739,-0.011749268,19.432068,8.584595,-50.837708,-0.884064361,1.096459617,8.352181681,-0.228213402,-0.067889239,0.010799814,19.69425767,8.203651428,-50.10097419
4.71E+12,-1.3504639,0.63752747,7.5855255,-0.08380127,-0.138031,0.058029175,19.432068,8.584595,-50.837708,-0.965895655,1.038926995,8.294328613,-0.219480502,-0.072237705,0.008544906,19.6680387,8.241745785,-50.17464758
4.71E+12,-0.9708252,0.8221741,7.6138916,-0.043762207,-0.16699219,0.115112305,19.615173,8.114624,-50.55847,-1.00435248,0.998787043,8.223448302,-0.205912579,-0.078817035,0.013493333,19.64444163,8.276030707,-50.24095362
4.71E+12,-0.6352234,0.99967957,7.5408325,-0.013244629,-0.19177246,0.15890503,19.615173,8.114624,-50.55847,-1.000999752,0.981125749,8.162492631,-0.189697542,-0.08763455,0.02365523,19.64151477,8.259890036,-50.27270526
4.71E+12,-0.19882202,1.2527924,7.418625,0.019210815,-0.20803833,0.19189453,19.615173,8.114624,-50.55847,-0.964422116,0.982981131,8.100326618,-0.17205225,-0.098048341,0.03718021,19.63888059,8.245363433,-50.30128173
4.71E+12,0.17164612,1.3480835,7.4111786,0.05293274,-0.21087646,0.2106018,19.615173,8.114624,-50.55847,-0.887862107,1.009962258,8.032156456,-0.152925944,-0.10904734,0.052651642,19.63650983,8.232289489,-50.32700056
4.71E+12,0.36865234,1.2216644,7.3559265,0.08331299,-0.20664978,0.21331787,19.694519,7.8796387,-50.405884,-0.781911284,1.043774382,7.970058671,-0.132340075,-0.119230252,0.068446658,19.63437615,8.22052294,-50.3501475
4.71E+12,0.3222046,1.1860657,7.1704407,0.11798096,-0.19662476,0.20106506,19.694519,7.8796387,-50.405884,-0.666854922,1.061563384,7.908645454,-0.110774769,-0.127972205,0.082933779,19.64039043,8.186434516,-50.35572115
4.71E+12,0.26945496,1.3320313,6.81514,0.15382385,-0.17738342,0.18475342,19.694519,7.8796387,-50.405884,-0.56794897,1.074013615,7.834824978,-0.087899196,-0.13483746,0.094746907,19.64580329,8.155754935,-50.36073744
4.71E+12,0.24154663,1.4862518,6.555435,0.18623352,-0.15089417,0.16967773,19.694519,7.8796387,-50.405884,-0.484208577,1.099815384,7.732856481,-0.063726891,-0.139092056,0.103747558,19.65067486,8.128143311,-50.36525209
4.71E+12,0.13108826,1.509613,6.4260254,0.21333313,-0.11885071,0.15931702,18.128967,8.874512,-49.71161,-0.411633056,1.138459025,7.615114332,-0.03873085,-0.140272268,0.110340576,19.65505928,8.10329285,-50.36931528
4.71E+12,-0.111694336,1.4503021,6.3379974,0.22756958,-0.093673706,0.14912415,18.128967,8.874512,-49.71161,-0.357360924,1.175574423,7.496205439,-0.013524452,-0.138130112,0.11523822,19.50245005,8.180414765,-50.30354476
4.71E+12,-0.33010864,1.3512878,6.2562714,0.23550415,-0.07258606,0.14012146,18.128967,8.874512,-49.71161,-0.332794265,1.203047191,7.380384635,0.010584951,-0.133684471,0.118626813,19.36510174,8.249824489,-50.24435128
4.71E+12,-0.49137878,1.282608,6.188431,0.23947144,-0.051940918,0.13948059,18.128967,8.874512,-49.71161,-0.332525703,1.217871252,7.267973312,0.033076871,-0.12757463,0.120776278,19.24148827,8.31229324,-50.19107715
4.71E+12,-0.62590027,1.2612152,6.166275,0.24107361,-0.03390503,0.1516571,19.667053,9.223938,-50.26703,-0.348411011,1.224344926,7.160019081,0.053716328,-0.120011259,0.122646709,19.13023614,8.368515116,-50.14313044
4.71E+12,-0.7856903,1.2962494,6.1743927,0.23919678,-0.015686035,0.17599487,19.667053,9.223938,-50.26703,-0.376159937,1.228031954,7.060644673,0.072452056,-0.111400636,0.125547748,19.18391783,8.454057404,-50.15552039
4.71E+12,-0.83729553,1.3740082,6.1044006,0.23625183,0.006515503,0.2118988,19.667053,9.223938,-50.26703,-0.417112973,1.234853698,6.972019475,0.089126528,-0.101829176,0.13059246,19.23223135,8.531045464,-50.16667135
4.71E+12,-0.71113586,1.5167542,5.941269,0.2345581,0.029647827,0.2520752,19.667053,9.223938,-50.26703,-0.459131229,1.248769149,6.885257588,0.103839059,-0.090994708,0.138723094,19.27571351,8.600334717,-50.17670722
4.71E+12,-0.41767883,1.7666168,5.837631,0.23295593,0.04675293,0.29566956,20.037842,9.25293,-50.405884,-0.484331692,1.275567654,6.790858729,0.116910963,-0.078930455,0.150058305,19.31484746,8.662695046,-50.1857395
4.71E+12,-0.048339844,2.0831757,5.795349,0.22698975,0.05769348,0.33554077,20.037842,9.25293,-50.405884,-0.477666406,1.324672568,6.695535956,0.128515459,-0.066362116,0.16461943,19.38714691,8.721718541,-50.20775395
4.71E+12,0.31282043,2.4213257,5.7086487,0.21226501,0.06611633,0.36082458,20.037842,9.25293,-50.405884,-0.434733749,1.400522881,6.60551726,0.138362888,-0.053956556,0.181711564,19.45221642,8.774839687,-50.22756695
4.71E+12,0.6697235,2.7170258,5.600708,0.1876831,0.07594299,0.36787415,20.037842,9.25293,-50.405884,-0.359978331,1.502603163,6.515830404,0.145753101,-0.041949268,0.199622866,19.51077898,8.822648718,-50.24539866
4.71E+12,0.966156,2.9407349,5.55365,0.15220642,0.0884552,0.35350037,19.577026,8.180237,-51.75171,-0.257008148,1.624045427,6.424318164,0.149946101,-0.030160042,0.216447994,19.56348528,8.865676846,-50.26144719
4.71E+12,1.1728668,3.1348877,5.563019,0.10913086,0.09965515,0.32173157,19.577026,8.180237,-51.75171,-0.134691734,1.755714374,6.337251348,0.150172133,-0.018298518,0.230153232,19.56483935,8.797132862,-50.41047347
4.71E+12,1.1804504,3.306549,5.811676,0.06590271,0.099624634,0.2762909,19.577026,8.180237,-51.75171,-0.00393588,1.893631707,6.259828113,0.146068005,-0.006503151,0.239311066,19.56605802,8.735443276,-50.54459712
4.71E+12,0.97102356,3.3509216,6.2135468,0.03125,0.075424194,0.21594238,19.577026,8.180237,-51.75171,0.114502748,2.034923436,6.215012902,0.138051476,0.004109627,0.243009049,19.56715482,8.679922648,-50.66530841
4.71E+12,0.60443115,3.2281647,6.600891,0.014465332,0.02633667,0.14901733,19.830322,8.360291,-51.01013,0.200154829,2.166523253,6.214866291,0.127371328,0.011241084,0.240302382,19.56814193,8.629954083,-50.77394857
4.71E+12,0.05810547,2.977478,7.1090393,0.020523071,-0.04777527,0.07914734,19.830322,8.360291,-51.01013,0.240582461,2.272687397,6.253468762,0.116080729,0.012750643,0.231173877,19.59435994,8.602987775,-50.79756671
4.71E+12,-0.4119568,2.7573242,7.615448,0.050445557,-0.13928223,0.021316528,19.830322,8.360291,-51.01013,0.222334762,2.343166458,6.339025816,0.106524963,0.006698051,0.215971223,19.61795615,8.578718097,-50.81882304
4.71E+12,-0.7461853,2.5529938,8.034531,0.10057068,-0.23677063,-0.011169434,19.830322,8.360291,-51.01013,0.158905606,2.384582232,6.466668034,0.100917022,-0.007899977,0.196505754,19.63919273,8.556875388,-50.83795374
4.71E+12,-0.93473816,2.4134216,8.327072,0.16801453,-0.33309937,-0.011871338,19.865417,8.395386,-50.907898,0.068396515,2.401423389,6.623454331,0.100882388,-0.030787042,0.175738235,19.65830566,8.537216949,-50.85517136
4.71E+12,-0.97566223,2.3066254,8.558426,0.24761963,-0.41601563,0.012542725,19.865417,8.395386,-50.907898,-0.031916952,2.40262321,6.793816098,0.107595602,-0.061018275,0.156977278,19.67901679,8.523033854,-50.86044403
4.71E+12,-0.9154358,2.3765259,8.692963,0.32025146,-0.4753418,0.0521698,19.865417,8.395386,-50.907898,-0.12629148,2.393023429,6.970277088,0.121598005,-0.09651801,0.142533822,19.69765681,8.510269069,-50.86518943
4.71E+12,-0.7687073,2.5303802,8.63382,0.3926239,-0.51675415,0.10498047,19.865417,8.395386,-50.907898,-0.205205912,2.391373676,7.142545679,0.14146335,-0.134400389,0.13349742,19.71443283,8.498780762,-50.86946028
4.71E+12,-0.5600281,2.6859436,8.547363,0.453125,-0.5296478,0.15625,20.523071,7.736206,-51.228333,-0.261556051,2.405274328,7.291673111,0.166579405,-0.172635765,0.130645725,19.72953125,8.488441286,-50.87330405
4.71E+12,-0.27812195,2.8940582,8.495422,0.49441528,-0.51724243,0.19992065,20.523071,7.736206,-51.228333,-0.291403256,2.433341255,7.4172421,0.195233965,-0.208336969,0.133206153,19.80888522,8.413217757,-50.90880695
4.71E+12,0.055358887,3.1754913,8.590561,0.5158539,-0.48399353,0.236969,20.523071,7.736206,-51.228333,-0.290075125,2.47941295,7.52506009,0.225152096,-0.239227515,0.139877602,19.8803038,8.345516581,-50.94075955
4.71E+12,0.3735962,3.4074707,8.603714,0.5161743,-0.43440247,0.26057434,20.523071,7.736206,-51.228333,-0.255531724,2.549020785,7.631610181,0.254222277,-0.263704116,0.149586742,19.94458052,8.284585523,-50.9695169
4.71E+12,0.62586975,3.52388,8.661819,0.49951172,-0.37454224,0.26361084,20.387268,7.2113037,-50.75836,-0.192618932,2.634865776,7.728820563,0.280417479,-0.280773952,0.160685502,20.00242957,8.229747571,-50.99539851
4.71E+12,0.7481842,3.5641174,8.901993,0.4688263,-0.2975464,0.24682617,20.387268,7.2113037,-50.75836,-0.110770063,2.723767199,7.822120407,0.302326903,-0.290150781,0.170978036,20.04091341,8.127903184,-50.97169466
4.71E+12,0.63087463,3.6355438,9.343338,0.4267273,-0.21969604,0.21168518,20.387268,7.2113037,-50.75836,-0.024874637,2.807802219,7.930107666,0.318976843,-0.290890343,0.178562849,20.07554887,8.036243235,-50.95036119
4.71E+12,0.44122314,3.4929504,9.69075,0.37800598,-0.13719177,0.16319275,20.387268,7.2113037,-50.75836,0.04070029,2.890576377,8.071430699,0.329751889,-0.283770912,0.181875082,20.10672078,7.953749282,-50.93116107
4.71E+12,0.16293335,3.3124237,9.891037,0.3298645,-0.04966736,0.113967896,20.387268,7.2113037,-50.75836,0.080752575,2.950813779,8.23336263,0.334577298,-0.269112998,0.180006849,20.13477551,7.879504724,-50.91388097
4.71E+12,-0.12149048,3.131836,9.942947,0.3298645,-0.04966736,0.113967896,20.387268,7.2113037,-50.75836,0.088970652,2.986974771,8.399130067,0.334106018,-0.247168434,0.173402954,20.16002476,7.812684621,-50.89832887
4.71E+12,-0.35557556,2.985077,10.058289,0.25509644,0.12927246,0.036010742,20.387268,7.2113037,-50.75836,0.067924539,3.001460894,8.55351176,0.333681866,-0.227418327,0.167459448,20.18274908,7.752546529,-50.88433198
4.71E+12,-0.56430054,3.022995,10.181274,0.22058105,0.21128845,0.013046265,20.378113,7.1884155,-50.74005,0.025574529,2.999822505,8.703989484,0.325823324,-0.191749248,0.154314577,20.20320097,7.698422246,-50.87173478
4.71E+12,-0.7455139,3.038269,10.231369,0.19882202,0.26480103,0.002563477,20.378113,7.1884155,-50.74005,-0.033412978,3.002139754,8.851717936,0.315299096,-0.151445478,0.140187746,20.22069217,7.647421572,-50.85856631
4.71E+12,-0.8742523,2.9524078,10.108185,0.18995667,0.2839508,-0.00302124,20.378113,7.1884155,-50.74005,-0.10462307,3.005752679,8.989683042,0.303651389,-0.109820828,0.126425319,20.23643426,7.601520964,-50.84671468
4.71E+12,-0.92633057,2.9483032,9.787079,0.19921875,0.26852417,-6.87E-04,20.378113,7.1884155,-50.74005,-0.181585993,3.000418191,9.101533238,0.292281917,-0.070443665,0.113480663,20.25060213,7.560210418,-50.83604821
4.71E+12,-0.8364563,2.984146,9.380066,0.21844482,0.21986389,0.002700806,18.62793,5.1208496,-50.750732,-0.256060451,2.995206692,9.170087814,0.2829756,-0.036546881,0.102063932,20.26335322,7.523030926,-50.82644839
4.71E+12,-0.7240448,3.0625305,9.030457,0.2350769,0.14408875,0.006835938,18.62793,5.1208496,-50.750732,-0.314100036,2.994100623,9.191085633,0.276522522,-0.010905804,0.09212762,20.0998109,7.282812794,-50.81887675
4.71E+12,-0.5264282,3.014801,8.925934,0.24229431,0.024673462,0.010192871,18.62793,5.1208496,-50.750732,-0.355094512,3.00094361,9.175022769,0.27237796,0.004593651,0.083598451,19.95262281,7.066616474,-50.81206227
4.71E+12,-0.46618652,2.9697266,9.132645,0.23362732,-0.11871338,0.005874634,18.62793,5.1208496,-50.750732,-0.372227881,3.002329349,9.150113892,0.269369595,0.006601632,0.076257893,19.82015353,6.872039787,-50.80592925
4.71E+12,-0.4011383,2.908661,9.549515,0.21546936,-0.28390503,-0.006881714,17.118835,4.6188354,-51.24359,-0.381623745,2.999069074,9.148367003,0.265795367,-0.005929869,0.069219567,19.70093117,6.696920768,-50.80040952
4.71E+12,-0.29493713,2.8925934,10.112228,0.19171143,-0.4590454,-0.021331787,17.118835,4.6188354,-51.24359,-0.3835752,2.990028267,9.188481803,0.260762767,-0.033727385,0.061609439,19.44272156,6.489112231,-50.84472757
4.71E+12,-0.17253113,2.8886719,10.752701,0.169281,-0.6282501,-0.032226563,17.118835,4.6188354,-51.24359,-0.374711393,2.98028478,9.280856423,0.253857633,-0.076259187,0.053315317,19.2103329,6.302084548,-50.88461381
4.71E+12,-0.01083374,2.8286133,11.491379,0.14631653,-0.77993774,-0.04093933,17.118835,4.6188354,-51.24359,-0.354493367,2.971123492,9.42804088,0.24539997,-0.131458278,0.044761129,19.00118311,6.133759633,-50.92051143
4.71E+12,0.12539673,2.741272,12.3107605,0.11416626,-0.90615845,-0.052337646,17.266846,4.6066284,-51.254272,-0.320127404,2.956872473,9.634374692,0.235491626,-0.196306224,0.036191083,18.8129483,5.98226721,-50.95281929
4.71E+12,0.19848633,2.6630096,13.127731,0.06736755,-0.9706116,-0.065826416,17.266846,4.6066284,-51.254272,-0.275574991,2.935312426,9.902013273,0.223359089,-0.267291447,0.02733821,18.65833807,5.844703329,-50.98296456
4.71E+12,0.28471375,2.6387787,13.943512,9.16E-04,-0.9670563,-0.08039856,17.266846,4.6066284,-51.254272,-0.228168859,2.908082143,10.22458505,0.207759935,-0.337623462,0.018021747,18.51918886,5.720895836,-51.0100953
4.71E+12,0.39646912,2.5523071,14.75621,-0.08049011,-0.90008545,-0.09609985,17.266846,4.6066284,-51.254272,-0.176880598,2.881151799,10.59647774,0.187075494,-0.400566746,0.008179717,18.39395458,5.609469093,-51.03451297
4.71E+12,0.443573,2.4502258,15.388794,-0.15878296,-0.7872772,-0.11323547,19.216919,4.4311523,-51.454163,-0.119545626,2.848267329,11.01245097,0.160318934,-0.450518616,-0.00224824,18.28124372,5.509185023,-51.05648888
4.71E+12,0.32887268,2.4092255,15.873062,-0.22789001,-0.6377411,-0.13510132,19.216919,4.4311523,-51.454163,-0.063233763,2.808463176,11.45008527,0.128408745,-0.484194475,-0.013346963,18.37481125,5.401381751,-51.09625629
4.71E+12,0.15594482,2.256424,16.067307,-0.28544617,-0.45629883,-0.16636658,19.216919,4.4311523,-51.454163,-0.024023119,2.768539408,11.89238294,0.092778869,-0.499549137,-0.025522399,18.45902202,5.304358806,-51.13204696
4.71E+12,0.0834198,2.027176,16.03891,-0.32048035,-0.27619934,-0.20129395,19.216919,4.4311523,-51.454163,-0.006026325,2.717327868,12.30987535,0.054956365,-0.495224106,-0.039606817,18.53481172,5.217038155,-51.16425856
4.71E+12,-0.032211304,1.859848,15.8749695,-0.33587646,-0.10153198,-0.23460388,17.805481,4.2755127,-51.913452,0.002918287,2.648312681,12.68277881,0.017412694,-0.47332163,-0.05577553,18.60302245,5.13844957,-51.19324901
4.71E+12,-0.20707703,1.7654724,15.463974,-0.33903503,0.05583191,-0.26568604,17.805481,4.2755127,-51.913452,-0.000594672,2.569466213,13.00199788,-0.017916222,-0.436142665,-0.073658365,18.5232683,5.052155883,-51.26526931
4.71E+12,-0.33895874,1.7103577,14.918549,-0.3368988,0.1874237,-0.2940216,17.805481,4.2755127,-51.913452,-0.021242908,2.489066831,13.24819549,-0.050028103,-0.386945207,-0.092861133,18.45148957,4.974491564,-51.33008758
4.71E+12,-0.41734314,1.6460571,14.360168,-0.33361816,0.29611206,-0.3202057,17.805481,4.2755127,-51.913452,-0.053014491,2.411195918,13.41523084,-0.078715172,-0.329508317,-0.112977179,18.38688872,4.904593678,-51.38842402
4.71E+12,-0.44218445,1.5654144,13.810333,-0.32833862,0.36647034,-0.34124756,17.713928,4.3655396,-51.82495,-0.089447356,2.334682037,13.50972456,-0.104205471,-0.266946279,-0.133700031,18.32874794,4.84168558,-51.44092682
4.71E+12,-0.4766388,1.5030975,13.405518,-0.32244873,0.39379883,-0.35609436,17.713928,4.3655396,-51.82495,-0.124721065,2.257755273,13.5397854,-0.126618786,-0.203604617,-0.154454784,18.26726595,4.794070982,-51.47932913
4.71E+12,-0.5525818,1.3736877,13.140671,-0.31698608,0.38415527,-0.36987305,17.713928,4.3655396,-51.82495,-0.159912839,2.182289496,13.52635866,-0.14620178,-0.143864272,-0.174618742,18.21193215,4.751217844,-51.51389122
4.71E+12,-0.76600647,1.1801453,12.872025,-0.30873108,0.34448242,-0.3812561,17.713928,4.3655396,-51.82495,-0.199179735,2.101429316,13.4877899,-0.16328021,-0.091062318,-0.194144173,18.16213174,4.71265002,-51.5449971
4.71E+12,-1.0380096,1.0194855,12.443939,-0.29464722,0.29354858,-0.3832245,16.989136,5.142212,-51.419067,-0.255862408,2.009300914,13.42621341,-0.177825297,-0.047507844,-0.212855365,18.11731137,4.677938978,-51.57299239
4.71E+12,-1.2657928,0.95458984,11.996216,-0.28108215,0.24081421,-0.37374878,16.989136,5.142212,-51.419067,-0.334077128,1.910319373,13.32798597,-0.18950749,-0.013402202,-0.229892279,18.00449383,4.72436628,-51.55759985
4.71E+12,-1.3375244,0.99079895,11.560699,-0.27841187,0.19447327,-0.35110474,16.989136,5.142212,-51.419067,-0.427248695,1.81474642,13.19480897,-0.198664956,0.012019439,-0.244277929,17.90295805,4.766150852,-51.54374657
4.71E+12,-1.2330475,1.0757904,11.323441,-0.2906494,0.14996338,-0.31611633,16.989136,5.142212,-51.419067,-0.518276265,1.732351673,13.03139797,-0.206639647,0.030264822,-0.25496061,17.81157584,4.803756967,-51.53127861
4.71E+12,-0.98924255,1.19841,11.2374115,-0.31843567,0.10038757,-0.27308655,16.259766,6.163025,-52.416992,-0.589753389,1.666695545,12.86060228,-0.215040622,0.042234678,-0.261076182,17.72933186,4.83760247,-51.52005745
4.71E+12,-0.63186646,1.288269,11.518753,-0.35603333,0.04396057,-0.22741699,16.259766,6.163025,-52.416992,-0.629702305,1.619866991,12.6982832,-0.225380127,0.048049967,-0.262277219,17.58237527,4.970144723,-51.6097509
4.71E+12,-0.3433075,1.4095306,11.837875,-0.3907013,-0.017852783,-0.18980408,16.259766,6.163025,-52.416992,-0.62991872,1.586707192,12.58033018,-0.238445447,0.047641028,-0.258791196,17.45011434,5.089432751,-51.69047501
4.71E+12,0.02229309,1.4893494,12.356857,-0.41764832,-0.09416199,-0.15623474,16.259766,6.163025,-52.416992,-0.601257598,1.568989533,12.50608466,-0.253671033,0.041091647,-0.251892484,17.33107951,5.196791976,-51.76312671
4.71E+12,0.5282898,1.6028748,12.892563,-0.42092896,-0.17427063,-0.13066101,16.360474,6.466675,-52.18506,-0.53890253,1.561025519,12.49116189,-0.270068761,0.027566283,-0.24232671,17.22394816,5.293415278,-51.82851324
4.71E+12,0.91874695,1.6504364,13.380035,-0.39938354,-0.24816895,-0.113220215,16.360474,6.466675,-52.18506,-0.432183297,1.565210447,12.53130201,-0.285154781,0.007382592,-0.23116014,17.13760074,5.41074125,-51.86416792
4.71E+12,1.1276398,1.7612915,13.840469,-0.35487366,-0.3093567,-0.10441589,16.360474,6.466675,-52.18506,-0.297090272,1.573733043,12.6161753,-0.296577657,-0.018172563,-0.219366147,17.05988807,5.516334625,-51.89625712
4.71E+12,1.1614532,1.7248993,13.97847,-0.28837585,-0.3514862,-0.10366821,16.360474,6.466675,-52.18506,-0.154617265,1.592488888,12.73860467,-0.302407257,-0.047290976,-0.207871122,16.98994666,5.611368663,-51.92513741
4.71E+12,1.084198,1.7000122,14.036621,-0.2083435,-0.37330627,-0.11112976,16.775513,7.4142456,-51.24359,-0.023010218,1.60572993,12.86259121,-0.301004117,-0.077710499,-0.197450831,16.9269994,5.696899296,-51.95112967
4.71E+12,1.1602783,1.6431732,13.793137,-0.10220337,-0.3801117,-0.11732483,16.775513,7.4142456,-51.24359,0.087710604,1.615158157,12.97999419,-0.291738055,-0.107270076,-0.188818723,16.91185076,5.868633927,-51.8803757
4.71E+12,1.2931824,1.7159119,13.459656,0.003494263,-0.36141968,-0.11230469,16.775513,7.4142456,-51.24359,0.194967373,1.617959661,13.06130847,-0.272784587,-0.134554238,-0.181669334,16.89821698,6.023195094,-51.81669713
4.71E+12,1.3718567,1.7167816,13.006668,0.105270386,-0.31796265,-0.10467529,16.775513,6.335449,-51.24359,0.304788876,1.627754885,13.10114322,-0.245156702,-0.157240782,-0.17473287,16.88594658,6.162300145,-51.75938642
4.71E+12,1.4175415,1.6000366,12.519333,0.19326782,-0.25646973,-0.09500122,16.775513,6.335449,-51.24359,0.411495658,1.636657556,13.0916957,-0.210113993,-0.173312969,-0.167727112,16.87490322,6.17961503,-51.70780678
4.71E+12,1.3904572,1.6158295,11.921158,0.19326782,-0.25646973,-0.09500122,16.775513,6.335449,-51.24359,0.512100242,1.632995461,13.03445943,-0.169775812,-0.181628645,-0.160454523,16.8649642,6.195198427,-51.6613851
4.71E+12,1.3852692,1.6635742,10.891907,0.33081055,-0.0945282,-0.07595825,16.775513,6.335449,-51.24359,0.599935938,1.631278865,12.92312929,-0.133471448,-0.189112754,-0.153909192,16.85601908,6.209223484,-51.61960559
4.71E+12,1.3550873,1.6897278,10.016006,0.39544678,-3.97E-04,-0.06402588,17.175293,6.5567017,-51.54724,0.678469264,1.634508398,12.72000706,-0.087043249,-0.179654298,-0.146114098,16.84796847,6.221846036,-51.58200403
4.71E+12,1.32547,1.7052002,9.023758,0.4431305,0.07583618,-0.051071167,17.175293,6.5567017,-51.54724,0.746131068,1.640030338,12.44960695,-0.038794246,-0.161728541,-0.137905276,16.88070093,6.255331602,-51.57852763
4.71E+12,1.3672638,1.7016754,8.10289,0.47784424,0.13301086,-0.03918457,17.175293,6.5567017,-51.54724,0.804064961,1.646547325,12.10702206,0.009398229,-0.137972069,-0.129221865,16.91016013,6.285468612,-51.57539887
4.71E+12,1.4721527,1.83255,7.3118896,0.49369812,0.17448425,-0.028305054,17.175293,6.5567017,-51.54724,0.860384845,1.652060132,11.70660885,0.05624283,-0.110873776,-0.120218136,16.93667342,6.312591921,-51.57258298
4.71E+12,1.5987244,1.9880371,6.6200714,0.49183655,0.19487,-0.01789856,17.89093,7.2402954,-52.36969,0.921561631,1.670109119,11.26713693,0.099988359,-0.082337974,-0.111026828,16.96053538,6.337002899,-51.57004868
4.71E+12,1.6936646,2.1380157,6.003372,0.47306824,0.19598389,-0.011169434,17.89093,7.2402954,-52.36969,0.989277907,1.701901917,10.80243037,0.139173178,-0.054617176,-0.101714001,17.05357484,6.427332149,-51.65001281
4.71E+12,1.795578,2.2346954,5.486786,0.434906,0.18011475,-0.016784668,17.89093,7.2402954,-52.36969,1.059716577,1.745513295,10.32252454,0.172562684,-0.02955707,-0.092659544,17.13731036,6.508628474,-51.72198053
4.71E+12,1.875473,2.3110962,5.0870056,0.38728333,0.15246582,-0.03112793,17.89093,7.2402954,-52.36969,1.133302719,1.794431506,9.838950682,0.198797016,-0.008589888,-0.085072057,17.21267232,6.581795167,-51.78675148
4.71E+12,1.9673767,2.3667145,4.861557,0.3231964,0.11782837,-0.051605225,16.775513,7.3654175,-52.249146,1.207519747,1.846097975,9.363756174,0.217645647,0.007515683,-0.079677644,17.28049809,6.64764519,-51.84504533
4.71E+12,1.9632874,2.3945923,4.8074036,0.2475586,0.07647705,-0.08026123,16.775513,7.3654175,-52.249146,1.283505442,1.898159628,8.913536257,0.228200723,0.018546952,-0.076870402,17.22999958,6.719422421,-51.8854554
4.71E+12,1.9850159,2.4140015,4.8598785,0.16659546,0.033187866,-0.114715576,16.775513,7.3654175,-52.249146,1.351483638,1.947802895,8.502922991,0.23013651,0.024339962,-0.077209485,17.18455092,6.784021929,-51.92182446
4.71E+12,1.9884949,2.3933716,5.1677246,0.08439636,-0.012405396,-0.15019226,16.775513,7.3654175,-52.249146,1.414836864,1.994422755,8.138618542,0.223782405,0.025224752,-0.080960094,17.14364713,6.842161486,-51.95455661
4.71E+12,1.8042145,2.2774048,5.554352,-0.001373291,-0.064819336,-0.19184875,16.775513,7.1411133,-51.809692,1.472202668,2.03431764,7.841529148,0.209843801,0.021461737,-0.087883311,17.10683372,6.894487087,-51.98401555
4.71E+12,1.6531677,2.117981,5.963394,-0.071884155,-0.11357117,-0.2344513,16.775513,7.1411133,-51.809692,1.505403851,2.058626356,7.612811433,0.188722092,0.01283363,-0.098279854,17.07370164,6.919149709,-51.9665832
4.71E+12,1.5973206,2.0707397,6.434784,-0.12684631,-0.15988159,-0.27488708,16.775513,7.1411133,-51.809692,1.520180236,2.06456182,7.44786969,0.162661467,0.00019315,-0.111896999,17.04388278,6.941346068,-51.95089408
4.71E+12,1.5391083,2.014511,6.8405914,-0.16629028,-0.20223999,-0.30847168,16.775513,7.1411133,-51.809692,1.527894272,2.065179608,7.346561121,0.133710689,-0.015814324,-0.128196007,17.0170458,6.961322791,-51.93677387
4.71E+12,1.4450073,1.8874817,7.14386,-0.18644714,-0.23744202,-0.33506775,17.185974,6.854248,-51.42212,1.529015675,2.060112747,7.295964149,0.103710592,-0.034456891,-0.146223574,16.99289252,6.979301842,-51.92406568
4.71E+12,1.3250885,1.8021088,7.3684387,-0.1895752,-0.2636261,-0.36001587,17.185974,6.854248,-51.42212,1.520614838,2.042849643,7.280753734,0.074694819,-0.054755404,-0.165107992,17.01220067,6.966796458,-51.87387111
4.71E+12,1.2093964,1.76828,7.559067,-0.17658997,-0.28378296,-0.38308716,17.185974,6.854248,-51.42212,1.501062204,2.018775558,7.28952223,0.048267817,-0.075642473,-0.18459878,17.029578,6.955541612,-51.828696
4.71E+12,1.1595001,1.734436,7.7186584,-0.15159607,-0.30337524,-0.39900208,17.185974,6.854248,-51.42212,1.471895624,1.993726003,7.316476707,0.025782038,-0.096456522,-0.204447618,17.0452176,6.945412251,-51.7880384
4.71E+12,1.1540222,1.7110901,7.7982025,-0.11882019,-0.32409668,-0.40933228,17.977905,7.192993,-52.416992,1.440656071,1.967797002,7.356694877,0.008044228,-0.117148394,-0.223903064,17.05929324,6.936295826,-51.75144656
4.71E+12,1.184845,1.7653656,7.7261505,-0.08216858,-0.33677673,-0.41516113,17.977905,7.192993,-52.416992,1.411992684,1.942126312,7.400845639,-0.004642214,-0.137843222,-0.242445986,17.15115442,6.961965543,-51.81800111
4.71E+12,1.2962036,1.861618,7.5828247,-0.051116943,-0.33410645,-0.41885376,17.977905,7.192993,-52.416992,1.389277916,1.924450241,7.433376125,-0.012394851,-0.157736573,-0.2597175,17.23382948,6.985068289,-51.8779002
4.71E+12,1.3579102,1.9290009,7.5287476,-0.031921387,-0.3113861,-0.42500305,17.977905,7.192993,-52.416992,1.379970484,1.918167017,7.448320983,-0.01626706,-0.175373561,-0.275631126,17.30823703,7.00586076,-51.93180938
4.71E+12,1.295517,1.9375458,7.499298,-0.028579712,-0.26837158,-0.43681335,17.640686,7.797241,-51.693726,1.377764456,1.919250405,7.456363644,-0.017832493,-0.188974815,-0.290568318,17.37520383,7.024573984,-51.98032764
4.71E+12,1.1429443,1.9224854,7.523163,-0.037231445,-0.21434021,-0.4530182,17.640686,7.797241,-51.693726,1.36953971,1.921079945,7.46065708,-0.018907215,-0.196914491,-0.305192822,17.40175204,7.101840686,-51.95166747
4.71E+12,1.0151825,1.8774109,7.467087,-0.047851563,-0.15435791,-0.47187805,17.640686,7.797241,-51.693726,1.346880169,1.92122049,7.466907672,-0.020739638,-0.198657063,-0.319975359,17.42564544,7.171380717,-51.92587333
4.71E+12,0.8851929,1.8326721,7.3162994,-0.052642822,-0.093307495,-0.48719788,17.640686,7.797241,-51.693726,1.313710402,1.916839531,7.466925605,-0.02345083,-0.194227148,-0.335165628,17.4471495,7.233966745,-51.90265859
4.71E+12,0.7338257,1.742569,7.0355377,-0.051956177,-0.037994385,-0.4982605,16.90979,7.9727173,-51.182556,1.270858652,1.908422788,7.451862984,-0.026370029,-0.184135183,-0.350368854,17.46650315,7.290294171,-51.88176533
4.71E+12,0.59721375,1.7404327,6.7460175,-0.04676819,0.015029907,-0.5042877,16.90979,7.9727173,-51.182556,1.217155357,1.891837409,7.410230456,-0.028928644,-0.169521103,-0.365158018,17.41083183,7.358536484,-51.8118444
4.71E+12,0.484787,1.7877502,6.4903717,-0.039260864,0.060653687,-0.5036926,16.90979,7.9727173,-51.182556,1.155161196,1.876696938,7.34380916,-0.030712599,-0.151066002,-0.379070986,17.36072765,7.419954565,-51.74891556
4.71E+12,0.48364258,1.8177338,6.425232,-0.036499023,0.097473145,-0.49827576,16.90979,7.9727173,-51.182556,1.088123776,1.867802264,7.258465414,-0.031567425,-0.129894033,-0.391533148,17.31563388,7.475230839,-51.6922796
4.71E+12,0.6354675,1.8878632,6.5056458,-0.037078857,0.120651245,-0.4900818,16.603088,6.8496704,-52.0813,1.027675657,1.862795418,7.175142073,-0.032060585,-0.107157315,-0.402207409,17.27504949,7.524979485,-51.64130724
4.71E+12,0.7787781,1.9330597,6.576935,-0.034744263,0.12579346,-0.4813385,16.603088,6.8496704,-52.0813,0.988454841,1.865302196,7.108192445,-0.032562412,-0.084376459,-0.410994848,17.20785335,7.457448576,-51.68530652
4.71E+12,0.7405548,1.9440155,6.717453,-0.023498535,0.11701965,-0.4788208,16.603088,6.8496704,-52.0813,0.967487167,1.872077947,7.055066701,-0.032780597,-0.063359467,-0.418029213,17.14737681,7.396670759,-51.72490587
4.71E+12,0.55851746,1.9195862,6.7612305,0.006439209,0.09025574,-0.4812317,16.603088,6.8496704,-52.0813,0.94479393,1.879271702,7.021305331,-0.031852391,-0.045321555,-0.424108372,17.09294793,7.341970723,-51.76054528
4.71E+12,0.30485535,1.8629608,6.594757,0.0554657,0.046401978,-0.48735046,15.975952,6.692505,-52.233887,0.906166283,1.883303152,6.995297848,-0.028023231,-0.031763826,-0.429820705,17.04396194,7.292740691,-51.79262075
4.71E+12,0.13804626,1.8001862,6.5196075,0.11328125,-0.005966187,-0.4900818,15.975952,6.692505,-52.233887,0.84603519,1.881268917,6.955243763,-0.019674338,-0.023947246,-0.43557368,16.93716094,7.232717122,-51.83674738
4.71E+12,0.07736206,1.7700653,6.3522034,0.16621399,-0.055404663,-0.48353577,15.975952,6.692505,-52.233887,0.775236297,1.873160645,6.911680137,-0.006378779,-0.02214914,-0.441024492,16.84104005,7.178695909,-51.87646134
4.71E+12,2.14E-04,1.6987457,6.3339996,0.20181274,-0.08772278,-0.46392822,15.975952,6.692505,-52.233887,0.705448873,1.86285111,6.855732463,0.010880498,-0.025474692,-0.44527562,16.75453124,7.130076818,-51.91220391
4.71E+12,-0.01399231,1.8009033,6.335495,0.22109985,-0.10394287,-0.43797302,15.792847,7.2296143,-51.394653,0.634925348,1.846440569,6.803559177,0.029973722,-0.031699501,-0.44714088,16.67667332,7.086319637,-51.94437222
4.71E+12,0.12782288,1.8465576,6.4230957,0.2368164,-0.11514282,-0.40670776,15.792847,7.2296143,-51.394653,0.570033582,1.841886842,6.756752759,0.049086335,-0.038923838,-0.446224094,16.58829069,7.100649103,-51.88940029
4.71E+12,0.23570251,1.8816986,6.5742188,0.24674988,-0.12495422,-0.3762207,15.792847,7.2296143,-51.394653,0.525812512,1.842353918,6.723387053,0.067859341,-0.046545736,-0.442272461,16.50874632,7.113545623,-51.83992556
4.71E+12,0.3607025,1.9685059,6.6056976,0.25442505,-0.13020325,-0.34890747,16.43219,8.052063,-50.238037,0.496801512,1.846288386,6.708470228,0.085748395,-0.054386584,-0.435667285,16.43715639,7.12515249,-51.79539831
4.71E+12,0.50187683,2.0872192,6.5849304,0.26190186,-0.12208557,-0.3262024,16.43219,8.052063,-50.238037,0.483191611,1.858510138,6.698192965,0.102616061,-0.061968251,-0.426991303,16.43665975,7.217843541,-51.63966218
4.71E+12,0.6881561,2.2045593,6.6933746,0.26489258,-0.10342407,-0.310318,16.43219,8.052063,-50.238037,0.485060133,1.881381044,6.686866709,0.118544641,-0.067979983,-0.416912413,16.43621277,7.301265487,-51.49949966
4.71E+12,0.6938629,2.3059845,6.8107452,0.26385498,-0.0821228,-0.30126953,16.43219,8.052063,-50.238037,0.505369729,1.91369887,6.687517498,0.133179435,-0.071524392,-0.406252972,16.4358105,7.376345238,-51.37335339
4.71E+12,0.6521454,2.3079987,6.8826294,0.2566986,-0.05491638,-0.30418396,16.16211,7.7819824,-51.197815,0.524219046,1.952927433,6.699840268,0.146246989,-0.072584232,-0.395754627,16.43544845,7.443917015,-51.25982175
4.71E+12,0.5844116,2.3442383,7.034073,0.24908447,-0.027832031,-0.3117981,16.16211,7.7819824,-51.197815,0.537011682,1.988434559,6.718119181,0.15729215,-0.070817447,-0.386597561,16.4081146,7.477723553,-51.25362108
4.71E+12,0.5904999,2.3843842,7.2011414,0.24253845,-0.002685547,-0.3188324,16.16211,7.7819824,-51.197815,0.541751674,2.024014933,6.749714563,0.166471382,-0.066518906,-0.379117615,16.38351414,7.508149438,-51.24804047
4.71E+12,0.5786133,2.3824158,7.476227,0.24360657,0.014755249,-0.32173157,16.16211,7.7819824,-51.197815,0.546626496,2.06005186,6.794857247,0.174078089,-0.06013557,-0.373089093,16.36137373,7.535532734,-51.24301792
4.71E+12,0.49432373,2.3809967,7.58519,0.25045776,0.025482178,-0.32337952,15.733337,6.9869995,-52.615356,0.549825177,2.092288254,6.862994222,0.181030937,-0.052646488,-0.367953341,16.34144735,7.560177701,-51.23849763
4.71E+12,0.3065796,2.3896332,7.6953125,0.26000977,0.03050232,-0.32658386,15.733337,6.9869995,-52.615356,0.544275032,2.121159099,6.9352138,0.187973619,-0.044833621,-0.363495959,16.28063632,7.502859881,-51.37618347
4.71E+12,0.22706604,2.4612732,7.674103,0.27833557,0.03463745,-0.3230133,15.733337,6.9869995,-52.615356,0.520505489,2.148006509,7.01122367,0.195177234,-0.037300027,-0.359804749,16.22590639,7.451273843,-51.50010072
4.71E+12,0.1391449,2.5321045,7.59346,0.29467773,0.033828735,-0.31347656,15.733337,6.9869995,-52.615356,0.491161544,2.179333178,7.077511603,0.203493068,-0.030106279,-0.356125604,16.17664945,7.404846408,-51.61162625
4.71E+12,0.050811768,2.5765991,7.58992,0.31254578,0.02281189,-0.2975769,15.57312,6.5063477,-53.086853,0.45595988,2.21461031,7.129106443,0.212611534,-0.023712778,-0.3518607,16.1323182,7.363061717,-51.71199922
4.71E+12,-0.08091736,2.5652466,7.7053223,0.33270264,0.00617981,-0.27957153,15.57312,6.5063477,-53.086853,0.415445068,2.250809189,7.175187798,0.222604959,-0.019060311,-0.34643232,16.07639838,7.277390316,-51.8494846
4.71E+12,-0.18916321,2.6141357,7.811447,0.34803772,-0.019897461,-0.26011658,15.57312,6.5063477,-53.086853,0.365808826,2.28225293,7.228201248,0.233614727,-0.016536299,-0.339746241,16.02607055,7.200286054,-51.97322144
4.71E+12,-0.18618774,2.682602,7.9030457,0.3625183,-0.05845642,-0.2386322,15.57312,6.5063477,-53.086853,0.310311622,2.315441207,7.286525824,0.245057026,-0.016872415,-0.331783275,15.98077549,7.130892219,-52.0845846
4.71E+12,-0.24395752,2.7545013,8.161453,0.37934875,-0.110961914,-0.21104431,16.47644,5.8029175,-52.20337,0.260661686,2.352157286,7.348177811,0.256803154,-0.021030816,-0.322468167,15.94000994,7.068437767,-52.18481144
4.71E+12,-0.29174805,2.791031,8.526291,0.39421082,-0.16520691,-0.1822815,16.47644,5.8029175,-52.20337,0.210199765,2.392391688,7.42950533,0.269057713,-0.030023926,-0.311325781,15.99365295,6.94188574,-52.18666729
4.71E+12,-0.32798767,2.8098602,9.017899,0.410141,-0.21742249,-0.15235901,16.47644,5.8029175,-52.20337,0.160004984,2.432255619,7.539183897,0.281573024,-0.043542224,-0.298421353,16.04193165,6.827988916,-52.18833756
4.71E+12,-0.39076233,2.843979,9.476639,0.43051147,-0.2597351,-0.122283936,16.47644,5.8029175,-52.20337,0.111205718,2.470016077,7.687055407,0.294429822,-0.060930251,-0.283815119,16.08538249,6.725481775,-52.18984081
4.71E+12,-0.40480042,2.9156952,9.774063,0.45542908,-0.29019165,-0.09370422,16.708374,5.9188843,-51.57776,0.061008913,2.507412369,7.866013767,0.308037986,-0.080810736,-0.267662001,16.12448824,6.633225347,-52.19119373
4.71E+12,-0.26200867,3.0737152,9.87912,0.489151,-0.30949402,-0.06227112,16.708374,5.9188843,-51.57776,0.01442798,2.548240652,8.05681869,0.322777096,-0.101748827,-0.250266223,16.18287681,6.561791242,-52.12985035
4.71E+12,0.037582397,3.2961884,9.921387,0.5333252,-0.31726074,-0.026428223,16.708374,5.9188843,-51.57776,-0.013215685,2.600788107,8.239048821,0.339414486,-0.122523346,-0.231466712,16.23542653,6.497500548,-52.07464132
4.71E+12,0.331604,3.4844818,9.962585,0.5753174,-0.31944275,0.002990723,16.708374,5.9188843,-51.57776,-0.008135877,2.670328137,8.407282639,0.358805558,-0.141997086,-0.210962863,16.28272128,6.439638923,-52.02495319
4.71E+12,0.48016357,3.5929108,9.828995,0.61172485,-0.31932068,0.020629883,16.43219,6.335449,-51.57776,0.025838111,2.751743503,8.562812875,0.380456742,-0.159741652,-0.189567505,16.32528655,6.387563461,-51.98023387
4.71E+12,0.5134125,3.6381989,9.502686,0.6431732,-0.32250977,0.023788452,16.43219,6.335449,-51.57776,0.071270657,2.835860233,8.689431088,0.403583553,-0.175699555,-0.168547766,16.3359769,6.382352015,-51.93998648
4.71E+12,0.56422424,3.6929016,9.057419,0.666275,-0.33561707,0.017181396,16.43219,6.335449,-51.57776,0.115484841,2.916094099,8.770756579,0.427542517,-0.190380576,-0.149314144,16.34559821,6.377661713,-51.90376383
4.71E+12,0.70240784,3.8353424,8.608292,0.6702423,-0.3598175,0.006668091,16.43219,6.335449,-51.57776,0.160358781,2.993774849,8.799422821,0.451415766,-0.204904226,-0.13266459,16.35425739,6.373440442,-51.87116345
4.71E+12,0.87275696,3.9676514,8.3888855,0.63861084,-0.38972473,-0.004577637,15.649414,5.999756,-52.775574,0.214563687,3.077931604,8.780309739,0.473298419,-0.220395553,-0.118731322,16.36205065,6.369641298,-51.84182311
4.71E+12,0.95700073,4.014511,8.587463,0.570282,-0.4190979,-0.020248413,15.649414,5.999756,-52.775574,0.280383014,3.166903584,8.741167315,0.489829661,-0.237328471,-0.107315954,16.29078698,6.332652768,-51.93519819
4.71E+12,0.89512634,3.9282074,9.163544,0.47061157,-0.45355225,-0.04307556,15.649414,5.999756,-52.775574,0.348044786,3.251664326,8.725796883,0.497874895,-0.255505414,-0.098609199,16.22664968,6.299363091,-52.01923578
4.71E+12,0.73983765,3.7898254,9.950867,0.35525513,-0.49076843,-0.07267761,15.649414,5.999756,-52.775574,0.402752941,3.319318633,8.769571595,0.495148563,-0.275310097,-0.093055836,16.16892612,6.269402382,-52.0948696
4.71E+12,0.48831177,3.5949554,10.777008,0.2450409,-0.5188904,-0.09983826,15.229797,5.366516,-52.537537,0.436461412,3.36636931,8.887701136,0.481159219,-0.296855931,-0.091018013,16.1169749,6.242437744,-52.16294004
4.71E+12,0.19311523,3.3269958,11.667191,0.13772583,-0.53596497,-0.12104797,15.229797,5.366516,-52.537537,0.441646448,3.389227919,9.076631822,0.457547387,-0.319059378,-0.091900038,16.02825711,6.15484557,-52.20039973
4.71E+12,0.03340149,3.1114502,12.607101,0.04559326,-0.5322113,-0.12689209,15.229797,5.366516,-52.537537,0.416793326,3.383004707,9.33568774,0.425565232,-0.340749937,-0.094814831,15.9484111,6.076012613,-52.23411346
4.71E+12,-0.032440186,2.882492,13.669403,-0.031402588,-0.5026245,-0.117263794,15.229797,5.366516,-52.537537,0.378454143,3.355849256,9.662829066,0.387568034,-0.359896073,-0.098022557,15.87654969,6.005062951,-52.26445581
4.71E+12,-0.110565186,2.7706757,14.81752,-0.0904541,-0.4487152,-0.09651184,15.229797,5.1330566,-52.0813,0.33736471,3.308513531,10.06348646,0.345670972,-0.374168916,-0.099946681,15.81187442,5.941208256,-52.29176393
4.71E+12,-0.12414551,2.7041168,15.732666,-0.122283936,-0.3751068,-0.0657959,15.229797,5.1330566,-52.0813,0.29257172,3.254729748,10.53888981,0.302058465,-0.381623544,-0.099603196,15.75366668,5.860393091,-52.27071754
4.71E+12,-0.12361145,2.6488953,16.415741,-0.122039795,-0.29022217,-0.030700684,15.229797,5.1330566,-52.0813,0.250899997,3.199668453,11.05826743,0.259624225,-0.38097187,-0.096222467,15.70127971,5.787659442,-52.25177579
4.71E+12,-0.20976257,2.6187592,16.55017,-0.08239746,-0.17831421,0.012115479,15.229797,5.1330566,-52.0813,0.213448852,3.144591137,11.59401479,0.221457823,-0.3718969,-0.089670289,15.65413144,5.722199157,-52.23472821
4.71E+12,-0.22769165,2.583313,16.30864,-0.013534546,-0.060562134,0.054870605,14.370728,4.763794,-52.200317,0.17112771,3.092007944,12.08963031,0.191072295,-0.352538631,-0.079491712,15.611698,5.663284902,-52.21938539
4.71E+12,-0.17765808,2.6725464,15.804855,0.068344116,0.062423706,0.10140991,14.370728,4.763794,-52.200317,0.131245774,3.041138449,12.51153128,0.170611611,-0.323340981,-0.06605548,15.487601,5.573335811,-52.21747855
4.71E+12,-0.14888,2.7631378,15.049438,0.15304565,0.1804657,0.15019226,14.370728,4.763794,-52.200317,0.100355389,3.004279244,12.84086365,0.160384861,-0.284764512,-0.049308941,15.3759137,5.49238163,-52.21576239
4.71E+12,-0.10020447,2.7658844,14.341858,0.22781372,0.28485107,0.19612122,14.370728,4.763794,-52.200317,0.07543185,2.9801651,13.06172109,0.15965094,-0.238241491,-0.029358821,15.27539513,5.419522867,-52.21421785
4.71E+12,-0.007568359,3.018631,13.437073,0.28001404,0.37139893,0.23136902,14.897156,4.244995,-51.88446,0.057868218,2.95873703,13.18973478,0.166467218,-0.185932235,-0.006810817,15.18492842,5.353949981,-52.21282777
4.71E+12,0.46746826,3.3320007,12.8582,0.31602478,0.45022583,0.2657013,14.897156,4.244995,-51.88446,0.05132456,2.964726427,13.2144686,0.1778219,-0.130199119,0.017007167,15.15615117,5.243054483,-52.17999099
4.71E+12,0.7170105,3.7025452,12.49791,0.31495667,0.50445557,0.29159546,14.897156,4.244995,-51.88446,0.09293893,3.001453854,13.17884174,0.191642188,-0.072156624,0.04187658,15.13025166,5.143248534,-52.15043789
4.71E+12,0.7223358,3.8614197,12.086945,0.2984314,0.53157043,0.2950287,15.229797,4.1030884,-51.745605,0.155346087,3.071562989,13.11074857,0.203973636,-0.014495404,0.066848468,15.10694209,5.053423181,-52.1238401
4.71E+12,0.6467438,3.8251953,11.568954,0.27902222,0.5213165,0.2725525,15.229797,4.1030884,-51.745605,0.212045058,3.15054866,13.00836821,0.213419413,0.040111179,0.089666491,15.11922758,4.958389703,-52.08601659
4.71E+12,0.50053406,3.7012634,11.03302,0.26182556,0.48353577,0.23753357,15.229797,4.1030884,-51.745605,0.255514933,3.218013324,12.86442679,0.219979693,0.088231711,0.107955092,15.13028452,4.872859572,-52.05197543
4.71E+12,0.23052979,3.7026672,10.613968,0.23266602,0.4352417,0.19969177,15.229797,4.1030884,-51.745605,0.280016845,3.266338332,12.68128611,0.22416428,0.127762117,0.12091294,15.14023577,4.795882455,-52.02133839
4.71E+12,-0.008346558,3.672577,10.4655,0.17614746,0.37121582,0.15701294,15.229797,3.565979,-50.70038,0.27506814,3.309971218,12.4745543,0.225014454,0.158510075,0.128790823,15.14919189,4.72660305,-51.99376505
4.71E+12,-0.2160492,3.5884705,10.583328,0.101242065,0.31536865,0.123703,15.229797,3.565979,-50.70038,0.24672667,3.346231797,12.27364887,0.220127755,0.17978065,0.131613035,15.1572524,4.610540645,-51.86442655
4.71E+12,-0.30101013,3.3471222,10.836258,0.004699707,0.2668152,0.100357056,15.229797,3.565979,-50.70038,0.200449083,3.370455667,12.10461678,0.208239186,0.19333945,0.130822031,15.16450686,4.50608448,-51.74802189
4.71E+12,-0.39344788,3.1513214,11.348892,-0.10520935,0.23623657,0.082336426,15.229797,3.565979,-50.70038,0.150303162,3.36812232,11.9777809,0.187885238,0.200687025,0.127775534,15.17103588,4.412073932,-51.6432577
4.71E+12,-0.52153015,2.9326782,11.890152,-0.21670532,0.22361755,0.07281494,14.68811,2.8747559,-51.460266,0.095928058,3.346442228,11.91489201,0.158575779,0.204241979,0.123231623,15.17691199,4.327464439,-51.54896993
4.71E+12,-0.6769104,2.65419,12.400345,-0.31448364,0.22782898,0.06954956,14.68811,2.8747559,-51.460266,0.034182237,3.305065825,11.91241801,0.121047669,0.206179536,0.118189955,15.12803179,4.182193585,-51.54009954
4.71E+12,-0.77915955,2.3930511,12.655624,-0.40092468,0.2437439,0.07229614,14.68811,2.8747559,-51.460266,-0.036927027,3.239978243,11.96121071,0.077494538,0.208344481,0.113325915,15.08403961,4.051449817,-51.53211618
4.71E+12,-0.9169159,2.1529388,12.872803,-0.45210266,0.25534058,0.08140564,14.68811,2.8747559,-51.460266,-0.111150279,3.155285529,12.03065204,0.029652616,0.211884423,0.109222938,15.04444665,3.933780425,-51.52493117
4.71E+12,-1.0862122,1.8934631,13.029022,-0.47372437,0.25595093,0.09666443,14.543152,2.7297974,-51.745605,-0.191726841,3.055050856,12.11486714,-0.018522911,0.216230038,0.106441208,15.00881299,3.827877972,-51.51846465
4.71E+12,-1.2723999,1.6395111,13.208176,-0.46780396,0.24110413,0.11949158,14.543152,2.7297974,-51.745605,-0.281175377,2.93889208,12.20628262,-0.064043057,0.220202128,0.10546353,14.96224689,3.718069915,-51.54117868
4.71E+12,-1.3998566,1.3698273,13.549728,-0.43655396,0.20794678,0.14888,14.543152,2.7297974,-51.745605,-0.380297829,2.808953982,12.30647196,-0.104419147,0.222292328,0.106866335,14.9203374,3.619242664,-51.56162132
4.71E+12,-1.3143616,1.2234344,13.86705,-0.37994385,0.16012573,0.18650818,14.543152,2.7297974,-51.745605,-0.482253707,2.665041314,12.43079756,-0.137632629,0.220857773,0.111067702,14.88261886,3.530298137,-51.58001968
4.71E+12,-1.0809326,1.22966,13.960129,-0.2895813,0.104156494,0.23721313,15.559387,2.87323,-50.186157,-0.565464496,2.520880623,12.57442281,-0.161863751,0.214784569,0.118611749,14.84867217,3.450248064,-51.59657822
4.71E+12,-0.8250427,1.2819672,13.803192,-0.18386841,0.06544495,0.29130554,15.559387,2.87323,-50.186157,-0.617011306,2.39175856,12.71299343,-0.174635506,0.203721761,0.130471887,14.91974366,3.392546257,-51.45553609
4.71E+12,-0.66397095,1.3276367,13.351318,-0.06994629,0.05152893,0.33979797,15.559387,2.87323,-50.186157,-0.637814446,2.280779424,12.82201328,-0.175558796,0.18989408,0.146555253,14.98370799,3.340614631,-51.32859819
4.71E+12,-0.56166077,1.4356842,12.688095,0.033416748,0.06808472,0.3764038,15.559387,2.87323,-50.186157,-0.640430096,2.185465152,12.87494376,-0.164997546,0.176057565,0.165879524,15.04127589,3.293876168,-51.21435407
4.71E+12,-0.5050812,1.5122528,12.018768,0.11361694,0.11009216,0.40274048,16.036987,3.4851074,-52.468872,-0.632553163,2.110487057,12.85625888,-0.145156116,0.165260281,0.186931952,15.093087,3.251811552,-51.11153436
4.71E+12,-0.45684814,1.5269012,11.2625885,0.17034912,0.16766357,0.42211914,16.036987,3.4851074,-52.468872,-0.619805967,2.050663631,12.77250979,-0.119278811,0.159743469,0.208512805,15.187477,3.275141136,-51.24726812
4.71E+12,-0.3407898,1.6345215,10.496277,0.20265198,0.23449707,0.4363861,16.036987,3.4851074,-52.468872,-0.603510184,1.998287388,12.62151766,-0.090316018,0.160535479,0.229873438,15.272428,3.296137763,-51.36942851
4.71E+12,-0.30421448,1.7735443,9.87059,0.2104187,0.2993164,0.44781494,16.036987,3.4851074,-52.468872,-0.577238146,1.961910799,12.4089936,-0.061019218,0.167931638,0.250524704,15.3488839,3.315034726,-51.47937286
4.71E+12,-0.31303406,1.851059,9.2938385,0.20529175,0.3497162,0.45281982,16.088867,3.5888672,-52.919006,-0.549935779,1.943074149,12.15515324,-0.033875426,0.181070114,0.270253728,15.41769421,3.332041994,-51.57832277
4.71E+12,-0.29315186,1.9106445,8.729736,0.19458008,0.37843323,0.45098877,16.088867,3.5888672,-52.919006,-0.526245607,1.933872634,11.86902176,-0.009958708,0.197934723,0.288510337,15.48481149,3.357724514,-51.7123911
4.71E+12,-0.24967957,1.9299774,8.176147,0.18209839,0.38485718,0.44670105,16.088867,3.5888672,-52.919006,-0.502936233,1.931549821,11.55509319,0.01049517,0.215984573,0.304758181,15.54521704,3.380838783,-51.83305259
4.71E+12,-0.23225403,1.9732513,7.7490234,0.16513062,0.3716278,0.44303894,16.088867,3.5888672,-52.919006,-0.477610566,1.931392579,11.21719857,0.027655492,0.232871834,0.318952467,15.59958204,3.401641625,-51.94164793
4.71E+12,-0.19673157,2.0363464,7.2389526,0.14273071,0.34057617,0.43873596,16.088867,3.9001465,-51.08795,-0.453074913,1.935578451,10.87038105,0.041403005,0.246747431,0.331361115,15.64851053,3.420364182,-52.03938374
4.71E+12,-0.12454224,2.0164032,6.7326508,0.117614746,0.3030243,0.431839,16.088867,3.9001465,-51.08795,-0.427440579,1.945655246,10.50723821,0.051535776,0.256130305,0.342098599,15.69254618,3.468342414,-51.94424036
4.71E+12,-0.05935669,2.031189,6.4621735,0.08633423,0.26634216,0.42640686,16.088867,3.9001465,-51.08795,-0.397150745,1.952730041,10.12977947,0.058143673,0.260819704,0.351072639,15.73217826,3.511522823,-51.85861133
4.71E+12,0.047714233,2.142868,6.315735,0.038848877,0.237854,0.4182434,16.088867,3.9001465,-51.08795,-0.363371339,1.960575937,9.763018869,0.060962728,0.26137195,0.358606061,15.76784714,3.55038519,-51.78154519
4.71E+12,0.23513794,2.276657,6.264328,-0.021347046,0.22125244,0.40675354,17.816162,3.4591675,-51.060486,-0.322262782,1.978805143,9.418290482,0.058751343,0.259020155,0.364569795,15.79994912,3.585361321,-51.71218567
4.71E+12,0.33961487,2.2296448,6.4178925,-0.09579468,0.21522522,0.38934326,17.816162,3.4591675,-51.060486,-0.26652271,2.008590329,9.102894234,0.050741504,0.255243383,0.36878817,16.00157041,3.572741939,-51.64701571
4.71E+12,0.30941772,2.085144,6.594681,-0.17214966,0.21466064,0.36386108,17.816162,3.4591675,-51.060486,-0.205908952,2.030695776,8.834394061,0.036087886,0.251241567,0.370843679,16.18302957,3.561384495,-51.58836274
4.71E+12,0.17163086,1.9918518,6.7253265,-0.24333191,0.22314453,0.33059692,17.816162,3.4591675,-51.060486,-0.154376285,2.036140599,8.610422754,0.015264131,0.247583474,0.370145419,16.34634281,3.551162796,-51.53557506
4.71E+12,0.06314087,1.8500061,6.8611298,-0.3052063,0.24534607,0.2992096,17.977905,3.4164429,-51.075745,-0.12177557,2.031711719,8.421913129,-0.010595473,0.24513958,0.366190569,16.49332473,3.541963266,-51.48806616
4.71E+12,-0.003570557,1.7113037,7.109329,-0.35908508,0.27766418,0.27308655,17.977905,3.4164429,-51.075745,-0.103283926,2.013541157,8.265834796,-0.040056556,0.245160229,0.359492472,16.64178276,3.52941123,-51.44683404
4.71E+12,-0.01234436,1.6535034,7.411377,-0.40063477,0.3111725,0.25546265,17.977905,3.4164429,-51.075745,-0.093312589,1.983317411,8.150184217,-0.071959408,0.248410624,0.35085188,16.77539498,3.518114397,-51.40972514
4.71E+12,-0.054641724,1.6042023,7.5823517,-0.4332428,0.34062195,0.23803711,17.977905,3.4164429,-51.075745,-0.085215766,1.95033601,8.076303495,-0.104826944,0.254686812,0.341312957,16.89564598,3.507947247,-51.37632712
4.71E+12,-0.019699097,1.5992737,7.616989,-0.44352722,0.35255432,0.22155762,17.138672,3.5842896,-50.58441,-0.082158362,1.915722639,8.026908315,-0.13766853,0.263280325,0.330985372,17.00387189,3.498796812,-51.34626891
4.71E+12,-0.10417175,1.5430603,7.476959,-0.42845154,0.3446045,0.20515442,17.138672,3.5842896,-50.58441,-0.075912436,1.884077745,7.985916384,-0.168254399,0.272207725,0.320042597,17.0173519,3.507346091,-51.27008302
4.71E+12,-0.19006348,1.5097809,7.1088257,-0.40296936,0.3277588,0.18478394,17.138672,3.5842896,-50.58441,-0.078738367,1.849976001,7.935020645,-0.194274113,0.279447402,0.308553779,17.02948391,3.515040442,-51.20151572
4.71E+12,-0.28677368,1.5044403,6.703293,-0.37876892,0.30714417,0.167099,17.138672,3.5842896,-50.58441,-0.089870878,1.815956491,7.852401151,-0.215143638,0.284278542,0.296176795,17.04040272,3.521965358,-51.13980515
4.71E+12,-0.43006897,1.4109497,6.269562,-0.36331177,0.28097534,0.1538086,17.790222,3.251648,-50.90027,-0.109561158,1.784804871,7.737490336,-0.231506166,0.286565105,0.283269016,17.05022964,3.528197782,-51.08426563
4.71E+12,-0.5737152,1.195816,6.1376495,-0.35569763,0.24298096,0.141922,17.790222,3.251648,-50.90027,-0.14161194,1.747419354,7.590697502,-0.244686726,0.286006128,0.270322974,17.12422888,3.500542804,-51.06586607
4.71E+12,-0.66304016,1.0803528,6.3548737,-0.3624878,0.2002716,0.1355896,17.790222,3.251648,-50.90027,-0.184822266,1.692259019,7.445392702,-0.255787817,0.281703612,0.257482877,17.19082819,3.475653323,-51.04930646
4.71E+12,-0.80259705,1.0057983,6.4392395,-0.37750244,0.1491394,0.13607788,17.790222,3.251648,-50.90027,-0.232644055,1.631068397,7.336340802,-0.266457815,0.27356041,0.245293549,17.25076757,3.453252791,-51.03440282
4.71E+12,-0.7164917,1.0923309,6.421646,-0.3869934,0.10423279,0.14533997,17.790222,3.251648,-50.90027,-0.289639355,1.568541387,7.246630672,-0.277562277,0.261118309,0.234371982,17.30471302,3.433092312,-51.02098953
4.71E+12,-0.66796875,1.1616516,6.3776245,-0.391922,0.06945801,0.1617279,17.790222,3.251648,-50.90027,-0.332324589,1.520920339,7.164132204,-0.28850539,0.245429757,0.225468781,17.35326391,3.414947881,-51.00891758
4.71E+12,-0.5966797,1.1123657,6.3806763,-0.39167786,0.036605835,0.17770386,17.790222,3.251648,-50.90027,-0.365889005,1.484993465,7.085481434,-0.298847051,0.227832583,0.219094693,17.39695972,3.398617893,-50.99805282
4.71E+12,-0.5424042,1.0566864,6.508499,-0.38537598,-0.005187988,0.1885376,17.788696,3.2791138,-50.897217,-0.388968075,1.447730688,7.015000921,-0.308130132,0.208709908,0.21495561,17.43628595,3.383920903,-50.98827454
4.71E+12,-0.5155029,1.0181885,6.547943,-0.37580872,-0.040496826,0.19999695,17.788696,3.2791138,-50.897217,-0.404311687,1.408626259,6.964350729,-0.315854717,0.187320118,0.212313809,17.47152696,3.373440193,-50.97916879
4.71E+12,-0.55960083,0.9995575,6.374115,-0.36158752,-0.063568115,0.20913696,17.788696,3.2791138,-50.897217,-0.415430808,1.369582483,6.922709956,-0.321850117,0.164538424,0.211082123,17.50324386,3.364007554,-50.97097361
4.71E+12,-0.5324402,1.1882172,6.1754,-0.34742737,-0.069869995,0.22090149,17.788696,3.2791138,-50.897217,-0.429847811,1.332579985,6.86785046,-0.325823857,0.14172777,0.210887607,17.53178907,3.355518178,-50.96359795
4.71E+12,-0.45246887,1.244461,5.9793243,-0.33502197,-0.06619263,0.23574829,16.972351,5.1452637,-50.405884,-0.44010705,1.318143707,6.798605414,-0.327984208,0.120567993,0.211888995,17.55747977,3.347877741,-50.95695985
4.71E+12,-0.1867218,1.3270721,5.79364,-0.33117676,-0.057373047,0.24908447,16.972351,5.1452637,-50.405884,-0.441343232,1.310775436,6.716677303,-0.328687985,0.101891931,0.214274924,17.49896689,3.527616336,-50.90185227
4.71E+12,0.12034607,1.4738312,5.6763763,-0.34161377,-0.026977539,0.26124573,16.972351,5.1452637,-50.405884,-0.415881088,1.312405102,6.624373572,-0.328936862,0.085965433,0.217755879,17.4463053,3.689381073,-50.85225544
4.71E+12,0.39772034,1.5594177,5.687256,-0.36216736,0.012252808,0.2646637,16.972351,5.1452637,-50.405884,-0.362258373,1.328547712,6.529573845,-0.330204553,0.074671136,0.222104864,17.39890987,3.834969336,-50.8076183
4.71E+12,0.4814148,1.5388031,5.898758,-0.38375854,0.048217773,0.25726318,17.634583,5.4763794,-50.405884,-0.286260501,1.351634711,6.445342061,-0.333400834,0.068429303,0.226360748,17.35625398,3.965998772,-50.76744487
4.71E+12,0.2723236,1.5016632,6.076889,-0.4012146,0.07548523,0.24021912,17.634583,5.4763794,-50.405884,-0.209492971,1.37035155,6.390683655,-0.338436604,0.06640815,0.229450991,17.38408689,4.117036835,-50.73128878
4.71E+12,0.060424805,1.5334473,6.2158813,-0.41151428,0.09786987,0.21820068,17.634583,5.4763794,-50.405884,-0.161311314,1.383482715,6.359304189,-0.344714404,0.067315858,0.230527804,17.4091365,4.252971091,-50.6987483
4.71E+12,-0.061920166,1.5264435,6.3115845,-0.40768433,0.11276245,0.19941711,17.634583,5.4763794,-50.405884,-0.139137702,1.398479173,6.3449619,-0.351394391,0.070371259,0.229295091,17.43168115,4.375311922,-50.66946187
4.71E+12,-0.18103027,1.4865265,6.437042,-0.3898468,0.11894226,0.188797,17.619324,5.3756714,-50.47455,-0.131415949,1.411275606,6.34162416,-0.357023385,0.074610378,0.226307293,17.45197133,4.48541867,-50.64310408
4.71E+12,-0.30162048,1.4165039,6.763504,-0.3661499,0.11462402,0.18777466,17.619324,5.3756714,-50.47455,-0.136377381,1.418800695,6.351165944,-0.360305727,0.079043567,0.222556264,17.4687066,4.574443943,-50.62624868
4.71E+12,-0.39413452,1.3851929,7.284561,-0.33709717,0.10166931,0.19137573,17.619324,5.3756714,-50.47455,-0.152901691,1.418571016,6.39239975,-0.360890144,0.082601612,0.219078104,17.48376834,4.654566689,-50.61107881
4.71E+12,-0.43997192,1.3945465,7.702179,-0.29890442,0.0909729,0.19981384,17.619324,5.3756714,-50.47455,-0.177024974,1.415233204,6.481615875,-0.358510847,0.084508382,0.216307866,17.49732391,4.72667716,-50.59742593
4.71E+12,-0.48147583,1.4513245,7.7938538,-0.24980164,0.08900452,0.21434021,17.532349,4.4158936,-51.27716,-0.203319668,1.413164534,6.603672187,-0.352550204,0.085154834,0.214658464,17.50952391,4.791576584,-50.58513833
4.71E+12,-0.53956604,1.5586853,7.4780273,-0.18728638,0.09576416,0.23428345,17.532349,4.4158936,-51.27716,-0.231135284,1.41698053,6.722690349,-0.342275348,0.085539802,0.214626638,17.51180642,4.754008285,-50.6543405
4.71E+12,-0.49531555,1.646698,7.039398,-0.11531067,0.108810425,0.25639343,17.532349,4.4158936,-51.27716,-0.26197836,1.431151007,6.798224044,-0.326776451,0.086562238,0.216592319,17.51386068,4.720196817,-50.71662245
4.71E+12,-0.3189392,1.7000275,6.734543,-0.057861328,0.12654114,0.27890015,17.532349,4.4158936,-51.27716,-0.285312079,1.452705707,6.822341439,-0.305629873,0.088787057,0.22057243,17.51570951,4.689766495,-50.77267621
4.71E+12,-0.17254639,1.7991943,6.4614105,-0.028121948,0.14665222,0.30166626,18.148804,5.6488037,-51.57776,-0.288674791,1.477437886,6.813561595,-0.280853018,0.092562465,0.226405202,17.51737346,4.662379206,-50.82312459
4.71E+12,-0.094833374,1.9442596,6.2500305,-0.020019531,0.16247559,0.32032776,18.148804,5.6488037,-51.57776,-0.277061951,1.509613527,6.778346486,-0.255579911,0.097971441,0.233931308,17.58051652,4.761021655,-50.89858813
4.71E+12,0.036727905,2.1128387,6.0145874,-0.026519775,0.1719513,0.3310852,18.148804,5.6488037,-51.57776,-0.258839093,1.553078135,6.725514887,-0.232023873,0.104421855,0.242570953,17.63734526,4.84979986,-50.96650531
4.71E+12,0.2424469,2.3066254,5.787613,-0.041763306,0.16926575,0.33688354,18.148804,5.6488037,-51.57776,-0.229282393,1.609054191,6.654422139,-0.211473463,0.1111748,0.251422378,17.68849114,4.929700244,-51.02763078
4.71E+12,0.49002075,2.5322723,5.789612,-0.06422424,0.1499939,0.3343048,18.02063,5.673218,-51.50299,-0.182109464,1.678811312,6.567741225,-0.194502448,0.116983895,0.259968494,17.73452242,5.001610589,-51.0826437
4.71E+12,0.5916748,2.6398773,5.952179,-0.09664917,0.11502075,0.32118225,18.02063,5.673218,-51.50299,-0.114896443,1.764157411,6.489928302,-0.181474627,0.120284895,0.267402125,17.76313318,5.06877133,-51.12467833
4.71E+12,0.5306549,2.7161865,5.998398,-0.1365509,0.06619263,0.29493713,18.02063,5.673218,-51.50299,-0.044239318,1.8517294,6.436153372,-0.172992081,0.119758481,0.272780137,17.78888286,5.129215997,-51.1625095
4.71E+12,0.5081024,2.6831818,6.193802,-0.18029785,0.013885498,0.25975037,18.02063,5.673218,-51.50299,0.013250103,1.93817511,6.392377835,-0.169347963,0.114401896,0.274995837,17.81205758,5.183616198,-51.19655755
4.71E+12,0.4916687,2.5994873,6.3881683,-0.22709656,-0.032714844,0.22537231,17.260742,5.847168,-50.935364,0.062735333,2.012675779,6.372520251,-0.170442952,0.104350256,0.27347129,17.83291482,5.232576378,-51.2272008
4.71E+12,0.5252533,2.5085144,6.771576,-0.28735352,-0.073532104,0.19215393,17.260742,5.847168,-50.935364,0.10562867,2.071356931,6.374085056,-0.176108313,0.090643746,0.268661392,17.77569754,5.29403554,-51.19801712
4.71E+12,0.48150635,2.431427,7.3404694,-0.35453796,-0.103378296,0.16194153,17.260742,5.847168,-50.935364,0.147591133,2.115072678,6.413834151,-0.187232833,0.074226161,0.261010646,17.72420198,5.349348786,-51.1717518
4.71E+12,0.37983704,2.2455444,8.268814,-0.4223175,-0.12289429,0.13330078,17.260742,5.847168,-50.935364,0.180982655,2.14670811,6.506497676,-0.203963346,0.056465715,0.251103734,17.67785599,5.399130707,-51.14811302
4.71E+12,0.17427063,2.0477905,9.330399,-0.4827118,-0.13497925,0.10409546,17.118835,5.9921265,-50.238037,0.200868093,2.156591739,6.682729308,-0.225798761,0.038529715,0.239323439,17.63614459,5.443934437,-51.12683812
4.71E+12,-0.072647095,1.9118042,10.210449,-0.52345276,-0.1376648,0.08097839,17.118835,5.9921265,-50.238037,0.198208347,2.145711615,6.947496277,-0.251490065,0.021178818,0.225800641,17.58441363,5.498753643,-51.03795801
4.71E+12,-0.34976196,1.7006989,10.895004,-0.5303955,-0.12823486,0.06832886,17.118835,5.9921265,-50.238037,0.171122803,2.122320874,7.273791549,-0.278686335,0.005294456,0.211318416,17.53785577,5.548090929,-50.95796591
4.71E+12,-0.485672,1.6492004,11.179703,-0.4997406,-0.103500366,0.067108154,17.118835,5.9921265,-50.238037,0.119034326,2.080158676,7.635912795,-0.303857251,-0.008058475,0.19701946,17.49595369,5.592494486,-50.88597302
4.71E+12,-0.5084381,1.7884521,11.32901,-0.4396057,-0.06904602,0.081954956,17.228699,6.248474,-50.631714,0.058563694,2.037062849,7.990291815,-0.323445586,-0.017602664,0.18402833,17.45824182,5.632457687,-50.82117942
4.71E+12,-0.539032,1.8747711,11.400909,-0.35902405,-0.039031982,0.10644531,17.228699,6.248474,-50.631714,0.001863514,2.012201774,8.324163634,-0.335061598,-0.022747,0.173820992,17.43528754,5.694059319,-50.80223287
4.71E+12,-0.60835266,1.8848267,11.356354,-0.2681427,-0.02508545,0.13044739,17.228699,6.248474,-50.631714,-0.052226037,1.998458706,8.63183817,-0.337457843,-0.024375498,0.167083424,17.41462868,5.749500787,-50.78518099
4.71E+12,-0.50886536,1.983017,10.952164,-0.17304993,-0.024597168,0.15242004,17.228699,6.248474,-50.631714,-0.107838699,1.987095506,8.904289753,-0.330526328,-0.024446493,0.163419821,17.39603572,5.799398108,-50.76983429
4.71E+12,-0.2846222,2.1622772,10.246201,-0.08784485,-0.03060913,0.169693,17.434692,7.0739746,-51.887512,-0.147941365,1.986687655,9.109077178,-0.314778689,-0.024461561,0.162319843,17.37930204,5.844305697,-50.75602226
4.71E+12,-0.1026001,2.284546,9.542862,0.003067017,-0.0524292,0.18933105,17.434692,7.0739746,-51.887512,-0.161609449,2.00424661,9.22278956,-0.292085305,-0.025076318,0.163057158,17.38484104,5.967272587,-50.86917123
4.71E+12,0.026519775,2.4517975,9.086487,0.06474304,-0.09082031,0.1995697,17.434692,7.0739746,-51.887512,-0.155708514,2.032276549,9.254796804,-0.262570073,-0.027811606,0.165684547,17.38982614,6.077942789,-50.97100531
4.71E+12,0.23143005,2.5889587,8.725311,0.09291077,-0.15045166,0.19683838,16.775513,6.678772,-51.24359,-0.137485685,2.074228644,9.237965824,-0.229838761,-0.034112476,0.169073063,17.39431272,6.17754597,-51.06265598
4.71E+12,0.48283386,2.7378693,8.490616,0.088638306,-0.22070313,0.1859436,16.775513,6.678772,-51.24359,-0.100594112,2.125701649,9.186700341,-0.197563808,-0.045746395,0.171849594,17.33243275,6.227668573,-51.08074938
4.71E+12,0.6296387,2.8650208,8.506165,0.04827881,-0.2841797,0.16319275,16.775513,6.678772,-51.24359,-0.042251314,2.186918415,9.117091907,-0.168943597,-0.063242068,0.173258995,17.27674077,6.272778916,-51.09703344
4.71E+12,0.8622894,2.9216003,8.984802,-0.027755737,-0.3293152,0.13294983,16.775513,6.678772,-51.24359,0.024937687,2.254728653,9.055999216,-0.147221356,-0.085335831,0.17225237,17.226618,6.313378224,-51.1116891
4.71E+12,0.98350525,2.890747,9.559326,-0.15414429,-0.3475647,0.087509155,16.775513,6.390381,-51.148987,0.108672858,2.321415818,9.048879495,-0.135274794,-0.109733768,0.168322116,17.1815075,6.349917602,-51.12487919
4.71E+12,1.0897522,2.7440948,10.309143,-0.29264832,-0.33955383,0.032470703,16.775513,6.390381,-51.148987,0.196156097,2.378348936,9.099924145,-0.137161744,-0.133516861,0.16024082,17.14090805,6.353963941,-51.12728997
4.71E+12,1.166565,2.5600739,11.150772,-0.43063354,-0.31243896,-0.025680542,16.775513,6.390381,-51.148987,0.285515708,2.414923522,9.220846031,-0.152710401,-0.154120558,0.147463809,17.10436854,6.357605647,-51.12945967
4.71E+12,1.1399841,2.2778625,11.867401,-0.5552521,-0.27519226,-0.08546448,16.775513,6.390381,-51.148987,0.373620637,2.42943856,9.413838628,-0.180502715,-0.169952398,0.130149374,17.07148299,6.360883183,-51.13141241
4.71E+12,0.91244507,1.8658905,12.41449,-0.65371704,-0.2288208,-0.14682007,17.027283,6.5078735,-50.660706,0.450256983,2.414280954,9.659194865,-0.217977654,-0.180476385,0.108587988,17.04188599,6.363832964,-51.13316987
4.71E+12,0.4664154,1.478302,13.049515,-0.7221832,-0.18016052,-0.20146179,17.027283,6.5078735,-50.660706,0.496475792,2.359441909,9.934724378,-0.261551592,-0.185310826,0.083047182,17.04042569,6.378237018,-51.08592348
4.71E+12,0.018997192,1.2419434,13.922104,-0.77230835,-0.13186646,-0.25091553,17.027283,6.5078735,-50.660706,0.493469753,2.271327918,10.24620344,-0.307614753,-0.184795796,0.054596285,17.03911142,6.391200666,-51.04340173
4.71E+12,-0.3619995,0.92559814,14.989716,-0.79519653,-0.09927368,-0.28230286,17.027283,6.5078735,-50.660706,0.446022497,2.168389466,10.6137935,-0.354084113,-0.179502862,0.024045104,17.03792858,6.402867949,-51.00513216
4.71E+12,-0.6349182,0.60672,15.866135,-0.7879791,-0.07595825,-0.29309082,17.634583,8.566284,-50.07019,0.365220297,2.044110333,11.05138575,-0.398195355,-0.171479944,-0.006589693,17.03686402,6.413368505,-50.97068954
4.71E+12,-0.8279419,0.41348267,16.23439,-0.73703,-0.055496216,-0.28157043,17.634583,8.566284,-50.07019,0.265206447,1.9003713,11.53286067,-0.437173729,-0.161927774,-0.035239805,17.09663592,6.628660054,-50.88063959
4.71E+12,-0.9219208,0.28884888,15.959045,-0.6430359,-0.033081055,-0.25473022,17.634583,8.566284,-50.07019,0.155891613,1.751682437,12.0030136,-0.467159356,-0.151284619,-0.059872868,17.15043063,6.822422449,-50.79959463
4.71E+12,-0.8145447,0.3632965,15.2152405,-0.51794434,-0.009674072,-0.21430969,17.634583,8.566284,-50.07019,0.048110371,1.605399081,12.39861674,-0.484747011,-0.139464262,-0.079358603,17.19884586,6.996808604,-50.72665417
4.71E+12,-0.58084106,0.5193176,14.271988,-0.37623596,0.012298584,-0.15966797,16.984558,8.035278,-51.04828,-0.038155136,1.481188823,12.68027912,-0.488066744,-0.126485243,-0.092853712,17.24241958,7.153756143,-50.66100775
4.71E+12,-0.23823547,0.6909332,13.361145,-0.26431274,0.031936646,-0.10809326,16.984558,8.035278,-51.04828,-0.092423728,1.385001701,12.83945001,-0.476883665,-0.11260686,-0.099535138,17.21663342,7.241908329,-50.69973497
4.71E+12,0.13772583,0.871521,12.680695,-0.19030762,0.0471344,-0.06590271,16.984558,8.035278,-51.04828,-0.107004902,1.315594851,12.89161951,-0.455626573,-0.09815251,-0.10039095,17.19342588,7.321245296,-50.73458948
4.71E+12,0.54756165,1.0537262,12.140228,-0.15611267,0.05126953,-0.0382843,16.984558,8.035278,-51.04828,-0.082531829,1.271187466,12.87052706,-0.429094677,-0.083623819,-0.096942126,17.17253909,7.392648567,-50.76595853
4.71E+12,1.0521088,1.2974854,11.692322,-0.1544342,0.04714966,-0.025817871,15.867615,8.006287,-51.956177,-0.019522481,1.249441339,12.79749715,-0.401796477,-0.070134484,-0.091076343,17.15374098,7.45691151,-50.79419068
4.71E+12,1.5402222,1.5523834,11.420151,-0.1763916,0.03590393,-0.031921387,15.867615,8.006287,-51.956177,0.087640647,1.254245745,12.68697964,-0.377060249,-0.05840607,-0.084550496,17.02512838,7.511849059,-50.91038931
4.71E+12,1.9000397,1.7315521,11.281296,-0.21566772,0.01423645,-0.06352234,15.867615,8.006287,-51.956177,0.232898802,1.284059511,12.56029677,-0.356993384,-0.04897507,-0.079287585,16.90937705,7.561292853,-51.01496808
4.71E+12,2.0375824,1.7687073,11.336014,-0.26786804,-0.008422852,-0.11769104,15.867615,8.006287,-51.956177,0.399612892,1.32880877,12.43239669,-0.342860818,-0.042653918,-0.077711061,16.80520084,7.605792268,-51.10908897
4.71E+12,1.9462891,1.6302948,11.6527405,-0.3368988,-0.02218628,-0.19108582,16.088867,9.768677,-50.238037,0.563409843,1.372798623,12.32275843,-0.33536154,-0.039230811,-0.081709059,16.71144226,7.645841741,-51.19379777
4.71E+12,1.7223969,1.4615784,12.024597,-0.4192505,-0.024353027,-0.27648926,16.088867,9.768677,-50.238037,0.701697768,1.39854824,12.25575663,-0.335515266,-0.037526358,-0.092646735,16.64918473,7.858125267,-51.0982217
4.71E+12,1.4479828,1.2924347,12.259338,-0.5016937,-0.009628296,-0.35786438,16.088867,9.768677,-50.238037,0.803767682,1.404851256,12.23264067,-0.343888789,-0.036209025,-0.111030987,16.59315296,8.04918044,-51.01220323
4.71E+12,1.2002869,0.9983368,12.484848,-0.5853119,0.024887085,-0.43478394,16.088867,9.768677,-50.238037,0.868189193,1.393609601,12.2353104,-0.35966928,-0.033550952,-0.135714327,16.54272436,8.221130096,-50.9347866
4.71E+12,0.85112,0.5901489,12.794586,-0.6525421,0.056884766,-0.49957275,16.578674,9.416199,-50.852966,0.901398964,1.354082321,12.26026416,-0.382233542,-0.027707148,-0.165621288,16.49733863,8.375884787,-50.86511164
4.71E+12,0.40151978,0.17501831,13.195389,-0.6909485,0.06286621,-0.5503235,16.578674,9.416199,-50.852966,0.896371068,1.277688979,12.31369635,-0.409264398,-0.019247957,-0.199016434,16.50547216,8.479916208,-50.86389708
4.71E+12,-0.09637451,-0.16177368,13.580444,-0.69799805,0.039535522,-0.58099365,16.578674,9.416199,-50.852966,0.846885939,1.167421912,12.40186561,-0.437432808,-0.01103654,-0.234147141,16.51279235,8.573544487,-50.86280397
4.71E+12,-0.40434265,-0.387146,13.93338,-0.6697235,-0.005462647,-0.590683,16.578674,9.416199,-50.852966,0.752559894,1.034502353,12.51972345,-0.463489332,-0.005979334,-0.268831792,16.51938051,8.657809938,-50.86182017
4.71E+12,-0.45643616,-0.5006714,14.1701355,-0.6132202,-0.06274414,-0.57743835,17.144775,9.489441,-51.745605,0.63686964,0.892337517,12.66108911,-0.484112749,-0.005927665,-0.301016912,16.52530986,8.733648845,-50.86093476
4.71E+12,-0.37332153,-0.49778748,14.198364,-0.52189636,-0.1335144,-0.5420685,17.144775,9.489441,-51.745605,0.52753906,0.753036626,12.81199374,-0.497023494,-0.011609313,-0.328659056,16.58725637,8.80922806,-50.94940178
4.71E+12,-0.23457336,-0.41049194,13.81604,-0.41238403,-0.20185852,-0.4970398,17.144775,9.489441,-51.745605,0.437453001,0.627954215,12.95063077,-0.499510781,-0.023799821,-0.350000001,16.64300824,8.877249354,-51.0290221
4.71E+12,-0.081710815,-0.2614441,13.211533,-0.30174255,-0.2482605,-0.44847107,17.144775,9.489441,-51.745605,0.370250365,0.5241096,13.03717169,-0.490798106,-0.041605691,-0.364703981,16.69318491,8.938468519,-51.10068039
4.71E+12,0.29907227,-0.17622375,12.645187,-0.21118164,-0.26167297,-0.40649414,16.946411,10.284424,-51.745605,0.325054247,0.44555423,13.05460782,-0.47189255,-0.062271172,-0.373080689,16.73834392,8.993565767,-51.16517285
4.71E+12,0.58229065,-0.17092896,12.548752,-0.15490723,-0.2479248,-0.37271118,16.946411,10.284424,-51.745605,0.322456049,0.383376432,13.01366574,-0.445821459,-0.082211352,-0.376422035,16.75915063,9.12265159,-51.22321607
4.71E+12,0.719223,-0.044403076,12.306168,-0.13417053,-0.21903992,-0.35165405,16.946411,10.284424,-51.745605,0.348439509,0.327945892,12.96717437,-0.416730036,-0.098782697,-0.376050949,16.77787667,9.238828831,-51.27545496
4.71E+12,0.80223083,0.12275696,11.779419,-0.1274414,-0.16911316,-0.34051514,16.946411,10.284424,-51.745605,0.385517858,0.290710996,12.90107373,-0.388474086,-0.110808419,-0.373611259,16.7947301,9.343388348,-51.32246997
4.71E+12,0.94148254,0.19216919,11.142609,-0.12904358,-0.09440613,-0.33972168,16.539001,11.01532,-51.664734,0.427189155,0.273915592,12.78890826,-0.362370817,-0.116638893,-0.370301647,16.80989819,9.437491913,-51.36478347
4.71E+12,1.0199585,0.17616272,10.592087,-0.1434784,-0.00289917,-0.34379578,16.539001,11.01532,-51.664734,0.478618494,0.265740952,12.62427833,-0.339038093,-0.114415617,-0.367243651,16.78280847,9.595274722,-51.39477852
4.71E+12,0.9689789,0.16867065,10.122726,-0.17033386,0.08279419,-0.35551453,16.539001,11.01532,-51.664734,0.532752494,0.256783129,12.4210592,-0.319482124,-0.103263972,-0.364898863,16.75842772,9.73727925,-51.42177407
4.71E+12,0.8922272,0.14382935,9.743515,-0.20606995,0.15377808,-0.3685608,16.539001,11.01532,-51.664734,0.576375135,0.247971881,12.19122588,-0.304567298,-0.084658156,-0.36396043,16.73648505,9.865083325,-51.44607006
4.71E+12,0.8517151,0.23376465,9.370438,-0.24557495,0.210495,-0.3837433,15.588379,11.660767,-51.90277,0.607960342,0.237557628,11.94645479,-0.294717563,-0.060814532,-0.364420467,16.71673665,9.980106992,-51.46793646
4.71E+12,0.71829224,0.24681091,9.197647,-0.28883362,0.25863647,-0.3977661,15.588379,11.660767,-51.90277,0.632335817,0.23717833,11.68885311,-0.289803302,-0.033683579,-0.36635275,16.60390088,10.14817299,-51.51141981
4.71E+12,0.5019989,0.17062378,8.988235,-0.3251648,0.28701782,-0.40615845,15.588379,11.660767,-51.90277,0.64093146,0.238141588,11.4397325,-0.289706333,-0.004451574,-0.369494085,16.50234869,10.29943239,-51.55055483
4.71E+12,0.3839264,0.11312866,8.716202,-0.3481903,0.29815674,-0.4087677,15.058899,11.485291,-52.249146,0.627038204,0.231389807,11.19458275,-0.29325218,0.024695365,-0.373160522,16.41095172,10.43556585,-51.58577635
4.71E+12,0.2520752,0.07623291,8.662338,-0.36106873,0.29904175,-0.40344238,15.058899,11.485291,-52.249146,0.602727023,0.219563692,10.94674468,-0.298745992,0.052041503,-0.37672124,16.27574645,10.54053837,-51.65211331
4.71E+12,0.08418274,-0.002685547,8.664383,-0.3708191,0.28804016,-0.38972473,15.058899,11.485291,-52.249146,0.567661841,0.205230614,10.71830401,-0.304978266,0.076741527,-0.379393354,16.15406171,10.63501363,-51.71181658
4.71E+12,-0.027542114,0.049987793,8.569672,-0.37245178,0.26864624,-0.3705902,15.058899,11.485291,-52.249146,0.519313931,0.184438998,10.51291191,-0.311562349,0.097871391,-0.380426491,16.04454544,10.72004137,-51.76554952
4.71E+12,-0.08746338,0.044143677,8.427307,-0.3671112,0.24839783,-0.3386383,16.348267,11.853027,-50.98877,0.464628326,0.170993878,10.31858792,-0.317651292,0.114948876,-0.379442862,15.94598079,10.79656633,-51.81390917
4.71E+12,-0.097335815,0.06465149,8.266357,-0.35321045,0.2334137,-0.30026245,16.348267,11.853027,-50.98877,0.409419156,0.158308858,10.12945982,-0.322597283,0.128293771,-0.375362406,15.98620941,10.9022124,-51.73139525
4.71E+12,0.005401611,0.09989929,8.241837,-0.3407135,0.2193451,-0.25909424,16.348267,11.853027,-50.98877,0.358743659,0.148943121,9.943149542,-0.3256586,0.138805764,-0.36785241,16.02241517,10.99729386,-51.65713273
4.71E+12,0.19247437,0.22521973,8.386948,-0.33035278,0.2052002,-0.21697998,16.348267,11.853027,-50.98877,0.323409454,0.144038738,9.773018288,-0.32716409,0.146859698,-0.356976593,16.05500035,11.08286717,-51.59029646
4.71E+12,0.5349121,0.45169067,8.58107,-0.31730652,0.18603516,-0.1789856,17.367554,11.889648,-50.177002,0.310315946,0.152156837,9.634411259,-0.327482959,0.152693748,-0.342976932,16.08432702,11.15988316,-51.53014381
4.71E+12,0.88690186,0.74967957,8.52478,-0.29701233,0.159729,-0.14936829,17.367554,11.889648,-50.177002,0.332775561,0.18211022,9.529077133,-0.326465315,0.156027889,-0.326577799,16.21264972,11.23285964,-51.39482963
4.71E+12,0.9386444,0.8581848,8.313004,-0.25628662,0.12294006,-0.13421631,17.367554,11.889648,-50.177002,0.388188191,0.238867155,9.42864742,-0.323520016,0.156398,-0.308856848,16.32814015,11.29853848,-51.27304687
4.71E+12,0.8548126,0.86486816,7.92659,-0.20602417,0.078933716,-0.13989258,17.367554,11.889648,-50.177002,0.443233812,0.30079892,9.317083078,-0.316796677,0.153052206,-0.291392794,16.43208153,11.35764943,-51.16344238
4.71E+12,0.8493347,0.89538574,7.5898438,-0.15922546,0.032058716,-0.15446472,17.289734,11.657715,-50.405884,0.484391691,0.357205844,9.17803377,-0.305719426,0.145640357,-0.276242773,16.52562878,11.41084929,-51.06479834
4.71E+12,0.878067,0.9061279,7.299942,-0.12315369,-0.018081665,-0.17036438,17.289734,11.657715,-50.405884,0.520885992,0.411023833,9.019214773,-0.29107003,0.134282193,-0.264064967,16.6020393,11.43553586,-50.99890691
4.71E+12,0.82440186,0.85858154,7.106888,-0.10101318,-0.074539185,-0.18270874,17.289734,11.657715,-50.405884,0.556604092,0.46053424,8.847287496,-0.274278396,0.119045807,-0.254694909,16.67080877,11.45775377,-50.93960462
4.71E+12,0.810318,0.82606506,7.096451,-0.095199585,-0.13049316,-0.1933136,17.289734,11.657715,-50.405884,0.583383869,0.50033897,8.673247546,-0.256951874,0.099687308,-0.247496292,16.73270129,11.47774989,-50.88623255
4.71E+12,0.8840637,0.86650085,7.432358,-0.114593506,-0.1695404,-0.20150757,17.601013,13.21106,-50.708008,0.606077282,0.532911579,8.515567892,-0.240776645,0.076669261,-0.242078023,16.78840456,11.4957464,-50.8381977
4.71E+12,0.92922974,0.9202423,7.800415,-0.15890503,-0.17869568,-0.20756531,17.601013,13.21106,-50.708008,0.633875924,0.566270506,8.407246902,-0.228158331,0.052048295,-0.238020977,16.86966541,11.66727776,-50.82517873
4.71E+12,0.9487457,0.9220581,8.041092,-0.21549988,-0.15579224,-0.2135315,17.601013,13.21106,-50.708008,0.663411306,0.601667685,8.346563712,-0.221233001,0.028973898,-0.234975411,16.94280017,11.82165599,-50.81346166
4.71E+12,0.92718506,0.9158478,8.155731,-0.27122498,-0.105773926,-0.22009277,17.601013,13.21106,-50.708008,0.691944745,0.633706727,8.316016541,-0.220659689,0.010497284,-0.23283102,17.00862145,11.96059639,-50.80291629
4.71E+12,0.81970215,0.8956909,8.114456,-0.3164673,-0.04548645,-0.2268982,18.225098,14.231873,-50.291443,0.715468777,0.661920834,8.299987987,-0.225716218,-0.001129837,-0.231557195,17.06786061,12.08564275,-50.79342546
4.71E+12,0.6214447,0.7877655,8.058853,-0.34873962,0.012939453,-0.23399353,18.225098,14.231873,-50.291443,0.725892114,0.685297841,8.281434788,-0.234791326,-0.005565498,-0.231091295,17.18358434,12.30026578,-50.74322722
4.71E+12,0.38105774,0.65586853,8.138672,-0.35987854,0.048217773,-0.23777771,18.225098,14.231873,-50.291443,0.715447373,0.695544607,8.259176609,-0.246186156,-0.003715003,-0.231381519,17.28773571,12.4934265,-50.69804879
