timestamp,accel_x,accel_y,accel_z,gyro_x,gyro_y,gyro_z,mag_x,mag_y,mag_z,EWMA accel_x,EWMA accel_y,EWMA accel_z,EWMA gyro_x,EWMA gyro_y,EWMA gyro_z,EWMA mag_x,EWMA mag_y,EWMA mag_z
8.05E+12,-0.8831787,1.5082397,9.011398,-0.40220642,0.077041626,-0.19204712,,,,#N/A,#N/A,#N/A,#N/A,#N/A,#N/A,#N/A,#N/A,#N/A
8.05E+12,-0.8596344,1.4969177,9.453842,0,0,0,0,0,0,-0.8831787,1.5082397,9.011398,-0.40220642,0.077041626,-0.19204712,0,0,0
8.05E+12,-0.83891296,1.5108337,9.847977,-0.39190674,-0.110809326,-0.12762451,0,0,0,-0.88082427,1.5071075,9.0556424,-0.361985778,0.069337463,-0.172842408,0,0,0
8.05E+12,-0.7720337,1.5320892,10.237396,-0.3499756,-0.206604,-0.09901428,0,0,0,-0.876633139,1.50748012,9.13487586,-0.364977874,0.051322784,-0.168320618,0,0,0
8.05E+12,-0.6839752,1.5334015,10.469177,-0.28562927,-0.30274963,-0.07376099,0,0,0,-0.866173195,1.509941028,9.245127874,-0.363477647,0.025530106,-0.161389984,0,0,0
8.05E+12,-0.5698395,1.5628967,10.542496,-0.20578003,-0.3798523,-0.051254272,17.042542,-22.981262,-46.696472,-0.847953396,1.512287075,9.367532787,-0.355692809,-0.007297868,-0.152627085,0,0,0
8.05E+12,-0.4427948,1.6008148,10.506271,-0.12515259,-0.4249115,-0.030838013,17.042542,-22.981262,-46.696472,-0.820142006,1.517348038,9.485029108,-0.340701531,-0.044553311,-0.142489804,1.7042542,-2.2981262,-4.6696472
8.05E+12,-0.29522705,1.6530457,10.525314,-0.05317688,-0.44158936,-0.01576233,17.042542,-22.981262,-46.696472,-0.782407285,1.525694714,9.587153297,-0.319146637,-0.08258913,-0.131324625,3.23808298,-4.36643978,-8.87232968
8.05E+12,-0.20280457,1.7217102,10.41246,1.53E-05,-0.43232727,-0.007354736,17.042542,-22.981262,-46.696472,-0.733689262,1.538429813,9.680969367,-0.292549661,-0.118489153,-0.119768395,4.618528882,-6.227922002,-12.65474391
8.05E+12,-0.18074036,1.7626495,10.265701,0.0332489,-0.39883423,-0.004882813,17.385864,-22.398376,-47.373962,-0.680600793,1.556757851,9.754118431,-0.263293169,-0.149872964,-0.108527029,5.860930194,-7.903256002,-16.05891672
8.05E+12,-0.17501831,1.758728,10.013504,0.051971436,-0.3382721,-0.007019043,17.385864,-22.398376,-47.373962,-0.630614749,1.577347016,9.805276688,-0.233638962,-0.174769091,-0.098162608,7.013423574,-9.352768002,-19.19042125
8.05E+12,-0.22473145,1.7465363,9.848373,0.04899597,-0.2582245,-0.010345459,17.385864,-22.398376,-47.373962,-0.585055105,1.595485115,9.826099419,-0.205077923,-0.191119392,-0.089048251,8.050667617,-10.6573288,-22.00877532
8.05E+12,-0.2800598,1.7424469,9.723907,0.02810669,-0.16807556,-0.012741089,17.385864,-22.398376,-47.373962,-0.54902274,1.610590233,9.828326777,-0.179670533,-0.197829903,-0.081177972,8.984187255,-11.83143352,-24.54529399
8.05E+12,-0.33137512,1.7545166,9.666809,-0.010513306,-0.07249451,-0.014938355,17.61322,-22.398376,-47.595215,-0.522126446,1.6237759,9.817884799,-0.158892811,-0.194854468,-0.074334284,9.82435493,-12.88812777,-26.82816079
8.05E+12,-0.36558533,1.7702332,9.627258,-0.055603027,0.018676758,-0.016174316,17.61322,-22.398376,-47.595215,-0.503051313,1.63684997,9.802777219,-0.14405486,-0.182618473,-0.068394691,10.60324144,-13.83915259,-28.90486621
8.05E+12,-0.42549133,1.7578278,9.65741,-0.09609985,0.094192505,-0.014541626,17.61322,-22.398376,-47.595215,-0.489304715,1.650188293,9.785225297,-0.135209677,-0.16248895,-0.063172653,11.30423929,-14.69507493,-30.77390109
8.05E+12,-0.4374237,1.8215485,9.710388,-0.1352539,0.16459656,-0.013214111,17.61322,-22.398376,-47.595215,-0.482923377,1.660952244,9.772443768,-0.131298694,-0.136820804,-0.058309551,11.93513736,-15.46540504,-32.45603248
8.05E+12,-0.42860413,1.8254089,9.697159,-0.1605072,0.21446228,-0.01008606,17.738342,-21.520996,-47.473145,-0.478373409,1.677011869,9.766238191,-0.131694215,-0.106679068,-0.053800007,12.50294563,-16.15870214,-33.96995073
8.05E+12,-0.4001007,1.7736816,9.656677,-0.17114258,0.2429657,-0.005767822,17.738342,-21.520996,-47.473145,-0.473396481,1.691851572,9.759330272,-0.134575513,-0.074564933,-0.049428612,13.02648526,-16.69493152,-35.32027016
8.05E+12,-0.41374207,1.7349701,9.5243225,-0.16722107,0.25224304,-0.00352478,17.738342,-21.520996,-47.473145,-0.466066903,1.700034575,9.749064945,-0.13823222,-0.04281187,-0.045062533,13.49767094,-17.17753797,-36.53555764
8.05E+12,-0.39105225,1.7372437,9.447128,-0.16722107,0.25224304,-0.00352478,17.738342,-21.520996,-47.473145,-0.46083442,1.703528128,9.7265907,-0.141131105,-0.013306379,-0.040908758,13.92173804,-17.61188377,-37.62931638
8.05E+12,-0.35739136,1.77388,9.475662,-0.1326294,0.23054504,0.00378418,16.896057,-21.57898,-47.055054,-0.453856203,1.706899685,9.69864443,-0.143740102,0.013248563,-0.03717036,14.30339844,-18.002795,-38.61369924
8.05E+12,-0.29377747,1.8266754,9.355621,-0.10903931,0.20117188,0.008514404,16.896057,-21.57898,-47.055054,-0.444209718,1.713597716,9.676346187,-0.142629031,0.034978211,-0.033074906,14.5626643,-18.3604135,-39.45783472
8.05E+12,-0.30464172,1.8654785,9.150391,-0.08392334,0.16690063,0.012863159,16.896057,-21.57898,-47.055054,-0.429166494,1.724905485,9.644273668,-0.139270059,0.051597578,-0.028915975,14.79600357,-18.68227015,-40.21755665
8.05E+12,-0.28115845,1.8531647,9.071808,-0.057876587,0.12583923,0.01701355,16.583252,-21.711731,-46.925354,-0.416714016,1.738962786,9.594885402,-0.133735387,0.063127883,-0.024738062,15.00600891,-18.97194113,-40.90130638
8.05E+12,-0.245224,1.9297333,8.981522,-0.034225464,0.0793457,0.01878357,16.583252,-21.711731,-46.925354,-0.40315846,1.750382978,9.542577661,-0.126149507,0.069399018,-0.0205629,15.16373322,-19.24592012,-41.50371114
8.05E+12,-0.19859314,1.9507294,8.752197,-0.014633179,0.02961731,0.017715454,16.583252,-21.711731,-46.925354,-0.387365014,1.76831801,9.486472095,-0.116957103,0.070393686,-0.016628253,15.3056851,-19.49250121,-42.04587543
8.05E+12,-0.16789246,2.0205994,8.614548,-0.002105713,-0.019241333,0.016098022,16.583252,-21.711731,-46.925354,-0.368487826,1.786559149,9.413044586,-0.106724711,0.066316048,-0.013193883,15.43344179,-19.71442419,-42.53382329
8.05E+12,-0.17100525,2.014267,8.6094055,0.003509522,-0.07763672,0.008468628,16.583252,-21.711731,-47.192383,-0.34842829,1.809963174,9.333194927,-0.096262811,0.05776031,-0.010264692,15.54842281,-19.91415487,-42.97297636
8.05E+12,-0.19384766,2.0135956,8.657455,0.006698608,-0.13664246,-0.001373291,16.583252,-21.711731,-47.192383,-0.330685986,1.830393557,9.260815984,-0.086285578,0.044220607,-0.00839136,15.65190573,-20.09391248,-43.39491702
8.05E+12,-0.18836975,1.9554901,8.725494,0.00428772,-0.19024658,-0.011749268,16.583252,-21.711731,-47.192383,-0.317002153,1.848713761,9.200479886,-0.076987159,0.0261343,-0.007689553,15.74504035,-20.25569433,-43.77466362
8.05E+12,-0.20347595,1.8810883,8.865036,-0.002822876,-0.23808289,-0.023727417,16.583252,-21.711731,-47.192383,-0.304138913,1.859391395,9.152981297,-0.068859671,0.004496212,-0.008095525,15.82886152,-20.401298,-44.11643556
8.05E+12,-0.2722168,1.8397522,9.066559,-0.011077881,-0.27781677,-0.034057617,15.892029,-21.298218,-46.855164,-0.294072617,1.861561085,9.124186768,-0.062255992,-0.019761698,-0.009658714,15.90430057,-20.5323413,-44.4240303
8.05E+12,-0.30439758,1.8084259,9.238464,-0.018676758,-0.3115387,-0.03981018,15.892029,-21.298218,-46.855164,-0.291887035,1.859380197,9.118423991,-0.057138181,-0.045567205,-0.012098604,15.90307341,-20.60892897,-44.66714367
8.05E+12,-0.29795837,1.7694092,9.418564,-0.02619934,-0.33700562,-0.04411316,15.892029,-21.298218,-46.855164,-0.293138089,1.854284767,9.130427992,-0.053292038,-0.072164355,-0.014869762,15.90196897,-20.67785787,-44.8859457
8.05E+12,-0.30342102,1.7147522,9.544174,-0.03024292,-0.35131836,-0.045837402,15.892029,-21.298218,-46.855164,-0.293620117,1.84579721,9.159241593,-0.050582768,-0.098648481,-0.017794102,15.90097497,-20.73989389,-45.08286753
8.05E+12,-0.2843933,1.6171722,9.716888,-0.034057617,-0.35295105,-0.04475403,15.725708,-21.195984,-46.757507,-0.294600208,1.832692709,9.197734833,-0.048548784,-0.123915469,-0.020598432,15.90008038,-20.7957263,-45.26009718
8.05E+12,-0.2501068,1.5673065,9.974304,-0.03515625,-0.34243774,-0.042770386,15.725708,-21.195984,-46.757507,-0.293579517,1.811140658,9.24965015,-0.047099667,-0.146819027,-0.023013992,15.88264314,-20.83575207,-45.40983816
8.05E+12,-0.2136383,1.5428925,10.178711,-0.034500122,-0.32395935,-0.03831482,15.725708,-21.195984,-46.757507,-0.289232245,1.786757243,9.322115535,-0.045905325,-0.166380898,-0.024989631,15.86694962,-20.87177526,-45.54460505
8.05E+12,-0.21873474,1.5780487,10.270828,-0.02734375,-0.29830933,-0.03186035,15.725708,-21.195984,-46.757507,-0.281672851,1.762370768,9.407775082,-0.044764805,-0.182138744,-0.02632215,15.85282546,-20.90419613,-45.66589524
8.05E+12,-0.23078918,1.6338043,10.272614,-0.011077881,-0.2642975,-0.024490356,15.725708,-22.691345,-47.340393,-0.27537904,1.743938561,9.494080373,-0.043022699,-0.193755802,-0.02687597,15.84011372,-20.93337492,-45.77505642
8.05E+12,-0.28147888,1.6585846,10.164749,0.008056641,-0.2260437,-0.01789856,15.725708,-22.691345,-47.340393,-0.270920054,1.732925135,9.571933736,-0.039828218,-0.200809972,-0.026637408,15.82867314,-21.10917193,-45.93159008
8.05E+12,-0.33702087,1.7376709,9.95369,0.027145386,-0.18345642,-0.013565064,15.725708,-22.691345,-47.340393,-0.271975936,1.725491082,9.631215262,-0.035039732,-0.203333345,-0.025763524,15.81837663,-21.26738924,-46.07247037
8.05E+12,-0.35087585,1.7910919,9.7747345,0.042785645,-0.14038086,-0.010299683,15.725708,-22.691345,-47.340393,-0.27848043,1.726709064,9.663462736,-0.02882122,-0.201345652,-0.024543678,15.80910977,-21.40978481,-46.19926263
8.05E+12,-0.38580322,1.8371735,9.676514,0.05142212,-0.10173035,-0.006576538,14.97345,-21.862793,-48.161316,-0.285719972,1.733147347,9.674589913,-0.021660533,-0.195249173,-0.023119278,15.80076959,-21.53794083,-46.31337567
8.05E+12,-0.43901062,1.8662262,9.70285,0.052139282,-0.06854248,-0.004577637,14.97345,-21.862793,-48.161316,-0.295728297,1.743549963,9.674782321,-0.014352268,-0.185897291,-0.021465004,15.71803763,-21.57042605,-46.4981697
8.05E+12,-0.42404175,1.8497772,9.646408,0.047424316,-0.04447937,-0.00390625,14.97345,-21.862793,-48.161316,-0.310056529,1.755817586,9.677589089,-0.007703113,-0.17416181,-0.019776267,15.64357887,-21.59966274,-46.66448433
8.05E+12,-0.37701416,1.838913,9.595093,0.04333496,-0.024810791,-0.001449585,14.97345,-21.862793,-48.161316,-0.321455051,1.765213548,9.67447098,-0.00219037,-0.161193566,-0.018189266,15.57656598,-21.62597577,-46.8141675
8.05E+12,-0.3697815,1.8063965,9.6089325,0.038650513,-0.00730896,0.004638672,14.866638,-21.711731,-48.2666,-0.327010962,1.772583493,9.666533182,0.002362163,-0.147555288,-0.016515298,15.51625438,-21.64965749,-46.94888235
8.05E+12,-0.32806396,1.8422699,9.603165,0.032470703,0.006164551,0.010101318,14.866638,-21.711731,-48.2666,-0.331288016,1.775964794,9.660773114,0.005990998,-0.133530655,-0.014399901,15.45129274,-21.65586484,-47.08065411
8.05E+12,-0.3350067,1.8699341,9.469666,0.027618408,0.014099121,0.013565064,14.866638,-21.711731,-48.2666,-0.33096561,1.782595304,9.655012303,0.008638968,-0.119561135,-0.011949779,15.39282727,-21.66145146,-47.1992487
8.05E+12,-0.37963867,1.8527069,9.337479,0.023880005,0.020080566,0.016174316,14.866638,-21.711731,-48.2666,-0.331369719,1.791329184,9.636477672,0.010536912,-0.106195109,-0.009398295,15.34020834,-21.66647941,-47.30598383
8.05E+12,-0.36976624,1.8765869,9.24408,0.019744873,0.024047852,0.020812988,16.15448,-21.711731,-47.950745,-0.336196614,1.797466955,9.606577805,0.011871222,-0.093567542,-0.006841033,15.29285131,-21.67100457,-47.40204545
8.05E+12,-0.31437683,1.9460297,9.089706,0.011169434,0.026504517,0.023803711,16.15448,-21.711731,-47.950745,-0.339553577,1.80537895,9.570328025,0.012658587,-0.081806002,-0.004075631,15.37901418,-21.67507721,-47.4569154
8.05E+12,-0.24905396,2.0279388,9.0346985,-3.51E-04,0.028686523,0.029418945,16.15448,-21.711731,-47.950745,-0.337035902,1.819444025,9.522265822,0.012509671,-0.07097495,-0.001287697,15.45656076,-21.67874259,-47.50629836
8.05E+12,-0.14979553,2.1300964,8.990784,-0.016799927,0.02734375,0.035095215,16.15448,-21.711731,-47.950745,-0.328237708,1.840293502,9.47350909,0.011223609,-0.061008803,0.001782967,15.52635268,-21.68204143,-47.55074303
8.05E+12,-0.0786438,2.2053528,8.877228,-0.035751343,0.016036987,0.036010742,15.591431,-20.741272,-46.665955,-0.31039349,1.869273792,9.425236581,0.008421255,-0.052173548,0.005114192,15.58916542,-21.68501039,-47.59074322
8.05E+12,-0.034805298,2.2584229,8.775391,-0.054840088,-0.002624512,0.030471802,15.591431,-20.741272,-46.665955,-0.287218521,1.902881693,9.370435723,0.004003996,-0.045352494,0.008203847,15.58939197,-21.59063655,-47.4982644
8.05E+12,-0.015365601,2.2700043,8.807785,-0.07157898,-0.027191162,0.014221191,15.591431,-20.741272,-46.665955,-0.261977199,1.938435814,9.310931251,-0.001880413,-0.041079696,0.010430642,15.58959588,-21.5057001,-47.41503346
8.05E+12,-0.061325073,2.180603,8.98201,-0.08404541,-0.060287476,-0.001312256,15.591431,-20.741272,-46.665955,-0.237316039,1.971592662,9.260616626,-0.008850269,-0.039690843,0.010809697,15.58977939,-21.42925729,-47.34012562
8.05E+12,-0.12445068,2.114975,9.205582,-0.0990448,-0.0970459,-0.017562866,15.553284,-20.681763,-46.591187,-0.219716942,1.992493696,9.232755963,-0.016369784,-0.041750506,0.009597502,15.58994455,-21.36045876,-47.27270855
8.05E+12,-0.042297363,2.053955,9.437912,-0.10820007,-0.13760376,-0.03303528,15.553284,-20.681763,-46.591187,-0.210190316,2.004741826,9.230038567,-0.024637285,-0.047280045,0.006881465,15.5862785,-21.29258918,-47.2045564
8.05E+12,-0.080322266,1.946228,9.682678,-0.10644531,-0.16921997,-0.044281006,15.553284,-20.681763,-46.591187,-0.193401021,2.009663144,9.25082591,-0.032993564,-0.056312417,0.002889791,15.58297905,-21.23150656,-47.14321946
8.05E+12,-0.06037903,1.9129639,9.702759,-0.097457886,-0.1920929,-0.054885864,15.553284,-20.681763,-46.591187,-0.182093145,2.003319629,9.294011119,-0.040338738,-0.067603172,-0.001827289,15.58000954,-21.17653221,-47.08801621
8.05E+12,-0.1355133,1.8493652,9.796188,-0.082229614,-0.19714355,-0.061416626,15.553284,-20.681763,-46.591187,-0.169921734,1.994284056,9.334885907,-0.046050653,-0.080052145,-0.007133147,15.57733699,-21.12705529,-47.03833329
8.05E+12,-0.13490295,1.8501434,9.962784,-0.0690918,-0.19241333,-0.06666565,15.553284,-20.681763,-46.591187,-0.16648089,1.979792171,9.381016116,-0.049668549,-0.091761285,-0.012561494,15.57493169,-21.08252606,-46.99361866
8.05E+12,-0.13000488,1.8286438,10.068924,-0.056137085,-0.18197632,-0.0687561,15.553284,-20.681763,-46.591187,-0.163323096,1.966827294,9.439192905,-0.051610874,-0.10182649,-0.01797191,15.57276692,-21.04244975,-46.9533755
8.05E+12,-0.14247131,1.7689819,10.16069,-0.043945313,-0.16395569,-0.06941223,16.900635,-23.068237,-46.59424,-0.159991275,1.953008944,9.502166014,-0.052063495,-0.109841473,-0.023050329,15.57081863,-21.00638108,-46.91715665
8.05E+12,-0.092666626,1.7345581,10.046112,-0.029464722,-0.14022827,-0.06617737,16.900635,-23.068237,-46.59424,-0.158239278,1.93460624,9.568018413,-0.051251677,-0.115252895,-0.027686519,15.70380026,-21.21256667,-46.88486498
8.05E+12,-0.079330444,1.7047272,9.866379,-0.009155273,-0.108169556,-0.059280396,16.900635,-23.068237,-46.59424,-0.151682013,1.914601426,9.615827772,-0.049072982,-0.117750432,-0.031535604,15.82348374,-21.3981337,-46.85580248
8.05E+12,-0.16062927,1.6940155,9.75386,0.010971069,-0.07733154,-0.054031372,16.900635,-23.068237,-46.59424,-0.144446856,1.893614003,9.640882894,-0.045081211,-0.116792345,-0.034310083,15.93119886,-21.56514403,-46.82964624
8.05E+12,-0.25274658,1.6937561,9.688126,0.027435303,-0.050598145,-0.0496521,14.523315,-21.368408,-46.925354,-0.146065098,1.873654153,9.652180605,-0.039475983,-0.112846264,-0.036282212,16.02814248,-21.71545333,-46.80610561
8.05E+12,-0.27752686,1.7293091,9.6471405,0.038757324,-0.028671265,-0.044799805,14.523315,-21.368408,-46.925354,-0.156733246,1.855664348,9.655775144,-0.032784854,-0.106621452,-0.037619201,15.87765973,-21.6807488,-46.81803045
8.05E+12,-0.22961426,1.7453003,9.576248,0.047332764,-0.016189575,-0.037384033,14.523315,-21.368408,-46.925354,-0.168812607,1.843028823,9.65491168,-0.025630636,-0.098826433,-0.038337261,15.74222526,-21.64951472,-46.82876281
8.05E+12,-0.13319397,1.8793793,9.444229,0.055664063,-0.009338379,-0.026748657,14.523315,-21.368408,-46.925354,-0.174892772,1.833255971,9.647045312,-0.018334296,-0.090562748,-0.038241939,15.62033423,-21.62140404,-46.83842193
8.05E+12,0.021591187,1.9905396,9.424881,0.06309509,-0.003509522,-0.014587402,14.637756,-21.408081,-46.905518,-0.170722892,1.837868304,9.626763681,-0.01093446,-0.082440311,-0.03709261,15.51063231,-21.59610444,-46.84711513
8.05E+12,0.122406006,2.0864716,9.400543,0.062927246,0.001953125,-0.008789063,14.637756,-21.408081,-46.905518,-0.151491484,1.853135433,9.606575413,-0.003531505,-0.074547232,-0.03484209,15.42334468,-21.5773021,-46.85295542
8.05E+12,0.13041687,2.0836182,9.369385,0.055648804,0.008514404,-0.014968872,14.637756,-21.408081,-46.905518,-0.124101735,1.87646905,9.585972171,0.00311437,-0.066897196,-0.032236787,15.34478581,-21.56037999,-46.85821168
8.05E+12,0.15635681,2.0687256,9.314835,0.04397583,0.020309448,-0.028503418,14.637756,-21.408081,-46.905518,-0.098649875,1.897183965,9.564313454,0.008367813,-0.059356036,-0.030509995,15.27408283,-21.54515009,-46.86294231
8.05E+12,0.21647644,2.0329285,9.282852,0.030059814,0.039611816,-0.04446411,16.490173,-21.98944,-46.707153,-0.073149206,1.914338128,9.539365609,0.011928615,-0.051389488,-0.030309338,15.21045015,-21.53144318,-46.86719988
8.05E+12,0.18736267,1.9526825,9.277405,0.012481689,0.06430054,-0.05973816,16.490173,-21.98944,-46.707153,-0.044186642,1.926197166,9.513714248,0.013741735,-0.042289357,-0.031724815,15.33842243,-21.57724286,-46.85119519
8.05E+12,0.10273743,1.8886566,9.188004,-0.010238647,0.09529114,-0.074661255,16.490173,-21.98944,-46.707153,-0.02103171,1.928845699,9.490083323,0.01361573,-0.031630368,-0.034526149,15.45359749,-21.61846258,-46.83679097
8.05E+12,0.08988953,1.8632813,9.153198,-0.03363037,0.13092041,-0.087387085,16.490173,-21.98944,-46.707153,-0.008654796,1.924826789,9.459875391,0.011230292,-0.018938217,-0.03853966,15.55725504,-21.65556032,-46.82382717
8.05E+12,0.04159546,1.8730316,9.291534,-0.055664063,0.16726685,-0.09680176,15.382385,-21.195984,-48.098755,0.001199636,1.91867224,9.429207652,0.006744226,-0.003952354,-0.043424402,15.65054684,-21.68894829,-46.81215976
8.05E+12,0.004928589,1.8545074,9.523788,-0.07376099,0.19526672,-0.10231018,15.382385,-21.195984,-48.098755,0.005239219,1.914108176,9.415440287,0.000503397,0.013169566,-0.048762138,15.62373065,-21.63965186,-46.94081928
8.05E+12,0.007354736,1.7949524,9.715958,-0.08380127,0.2131958,-0.10494995,15.382385,-21.195984,-48.098755,0.005208156,1.908148099,9.426275058,-0.006923041,0.031379282,-0.054116942,15.59959609,-21.59528507,-47.05661285
8.05E+12,0.016479492,1.7529755,9.755814,-0.07727051,0.22846985,-0.10494995,15.382385,-21.195984,-48.098755,0.005422814,1.896828529,9.455243352,-0.014610864,0.049560933,-0.059200243,15.57787498,-21.55535496,-47.16082707
8.05E+12,0.02015686,1.738327,9.678421,-0.04815674,0.24668884,-0.10269165,15.42511,-21.282959,-48.18268,0.006528482,1.882443226,9.485300417,-0.020876829,0.067451825,-0.063775214,15.55832598,-21.51941787,-47.25461986
8.05E+12,-0.03515625,1.7252197,9.565491,-0.005203247,0.26148987,-0.09794617,15.42511,-21.282959,-48.18268,0.007891319,1.868031603,9.504612475,-0.02360482,0.085375527,-0.067666857,15.54500438,-21.49577198,-47.34742588
8.05E+12,-0.13282776,1.7100067,9.41304,0.043670654,0.26953125,-0.09272766,15.42511,-21.282959,-48.18268,0.003586562,1.853750413,9.510700328,-0.021764663,0.102986961,-0.070694789,15.53301494,-21.47449068,-47.43095129
8.05E+12,-0.19519043,1.6937561,9.151871,0.09390259,0.27088928,-0.08493042,15.42511,-21.282959,-48.18268,-0.01005487,1.839376042,9.500934295,-0.015221131,0.11964139,-0.072898076,15.52222445,-21.45533751,-47.50612416
8.05E+12,-0.18681335,1.7028961,8.844986,0.13787842,0.27182007,-0.07293701,15.675354,-21.533203,-48.52295,-0.028568426,1.824814047,9.466027965,-0.004308759,0.134766179,-0.07410131,15.512513,-21.43809966,-47.57377974
8.05E+12,-0.1499176,1.7246704,8.568253,0.17248535,0.2740326,-0.055725098,15.675354,-21.533203,-48.52295,-0.044392918,1.812622253,9.403923769,0.009909959,0.148471568,-0.07398488,15.5287971,-21.44761,-47.66869677
8.05E+12,-0.07733154,1.8560791,8.389648,0.19197083,0.27478027,-0.035003662,15.675354,-21.533203,-48.52295,-0.054945386,1.803827067,9.320356692,0.026167498,0.161027671,-0.072158902,15.54345279,-21.4561693,-47.75412209
8.05E+12,-0.040161133,1.9647064,8.2543335,0.19677734,0.27241516,-0.013442993,15.675354,-21.533203,-48.52295,-0.057184002,1.809052271,9.227285823,0.042747831,0.172402931,-0.068443378,15.55664291,-21.46387267,-47.83100488
8.05E+12,-0.11192322,2.1059723,8.264175,0.19058228,0.26104736,0.003555298,15.382385,-19.47937,-47.0932,-0.055481715,1.824617684,9.129990591,0.058150782,0.182404154,-0.06294334,15.56851402,-21.4708057,-47.90019939
8.05E+12,-0.15803528,2.164505,8.298691,0.17848206,0.24012756,0.018051147,15.382385,-19.47937,-47.0932,-0.061125865,1.852753145,9.043409031,0.071393932,0.190268475,-0.056293476,15.54990112,-21.27166213,-47.81949945
8.05E+12,-0.24958801,2.199997,8.368362,0.1669159,0.21211243,0.028244019,15.382385,-19.47937,-47.0932,-0.070816807,1.883928331,8.968937228,0.082102745,0.195254383,-0.048859013,15.53314951,-21.09243292,-47.74686951
8.05E+12,-0.28704834,2.3865356,8.6480255,0.15267944,0.17218018,0.039352417,15.382385,-19.47937,-47.0932,-0.088693927,1.915535198,8.908879705,0.09058406,0.196940188,-0.04114871,15.51807306,-20.93112663,-47.68150256
8.05E+12,-0.07136536,2.6307526,8.754959,0.14006042,0.12930298,0.049545288,15.615845,-19.98291,-46.99402,-0.108529368,1.962635238,8.882794285,0.096793598,0.194464187,-0.033098598,15.50450425,-20.78595096,-47.6226723
8.05E+12,0.18127441,2.7631836,8.552612,0.13270569,0.10064697,0.061264038,15.615845,-19.98291,-46.99402,-0.104812968,2.029446974,8.870010756,0.10112028,0.187948066,-0.024834209,15.51563833,-20.70564687,-47.55980707
8.05E+12,0.36480713,2.8802032,8.35939,0.12998962,0.09555054,0.07131958,15.615845,-19.98291,-46.99402,-0.07620423,2.102820637,8.838270881,0.104278821,0.179217957,-0.016224384,15.52565899,-20.63337318,-47.50322837
8.05E+12,0.46229553,2.9061584,8.39061,0.121917725,0.105148315,0.070373535,15.615845,-19.98291,-46.99402,-0.032103094,2.180558893,8.790382793,0.106849901,0.170851215,-0.007469988,15.53467759,-20.56832686,-47.45230753
8.05E+12,0.529068,2.979782,8.5327,0.10151672,0.10601807,0.062683105,16.508484,-21.835327,-46.446228,0.017336769,2.253118844,8.750405513,0.108356684,0.164280925,0.000314364,15.54279434,-20.50978518,-47.40647878
8.05E+12,0.5686035,3.081009,8.734894,0.07092285,0.095687866,0.04307556,16.508484,-21.835327,-46.446228,0.068509892,2.325785159,8.728634962,0.107672687,0.15845464,0.006551238,15.6393633,-20.64233936,-47.3104537
8.05E+12,0.47990417,3.093216,8.723099,0.047805786,0.09005737,0.01499939,16.508484,-21.835327,-46.446228,0.118519252,2.401307543,8.729260866,0.103997704,0.152177962,0.010203671,15.72627537,-20.76163812,-47.22403113
8.05E+12,0.38786316,3.0156403,8.724747,0.025878906,0.09768677,-0.015563965,16.23993,-21.025085,-45.9198,0.154657744,2.470498389,8.728644679,0.098378512,0.145965903,0.010683243,15.80449623,-20.86900701,-47.14625082
8.05E+12,0.2516327,2.8913116,8.703125,0.002822876,0.11653137,-0.041763306,16.23993,-21.025085,-45.9198,0.177978286,2.52501258,8.728254911,0.091128551,0.14113799,0.008058522,15.84803961,-20.88461481,-47.02360573
8.05E+12,0.15890503,2.8439636,8.649063,-0.02230835,0.14147949,-0.06518555,16.23993,-21.025085,-45.9198,0.185343727,2.561642482,8.72574192,0.082297984,0.138677328,0.003076339,15.88722865,-20.89866183,-46.91322516
8.05E+12,0.046875,2.8140259,8.616455,-0.04664612,0.16273499,-0.07829285,16.23993,-21.025085,-45.9198,0.182699858,2.589874594,8.718074028,0.07183735,0.138957544,-0.00374985,15.92249878,-20.91130415,-46.81388264
8.05E+12,0.011444092,2.8695526,8.620712,-0.07435608,0.1794281,-0.08276367,16.511536,-21.025085,-46.0968,0.169117372,2.612289725,8.707912125,0.059989003,0.141335289,-0.01120415,15.95424191,-20.92268223,-46.72447438
8.05E+12,-0.03590393,2.9330292,8.619247,-0.095703125,0.18515015,-0.08439636,16.511536,-21.025085,-46.0968,0.153350044,2.638016012,8.699192113,0.046554495,0.14514457,-0.018360102,16.00997132,-20.93292251,-46.66170694
8.05E+12,6.71E-04,2.98143,8.584702,-0.112213135,0.17567444,-0.08255005,16.511536,-21.025085,-46.0968,0.134424646,2.667517331,8.691197602,0.032328733,0.149145128,-0.024963728,16.06012778,-20.94213876,-46.60521625
8.05E+12,0.07936096,3.079773,8.450531,-0.12272644,0.15310669,-0.083099365,16.511536,-21.025085,-46.0968,0.12104932,2.698908598,8.680548041,0.017874546,0.151798059,-0.03072236,16.10526861,-20.95043338,-46.55437462
8.05E+12,0.18417358,3.1444244,8.399948,-0.13174438,0.11288452,-0.087127686,17.463684,-21.025085,-46.684265,0.116880484,2.736995038,8.657546337,0.003814448,0.151928922,-0.03596006,16.14589535,-20.95789854,-46.50861716
8.05E+12,0.29640198,3.2249756,8.353348,-0.14312744,0.056930542,-0.09487915,17.463684,-21.025085,-46.684265,0.123609794,2.777737974,8.631786504,-0.009741435,0.148024482,-0.041076823,16.27767421,-20.96461719,-46.52618194
8.05E+12,0.38046265,3.261444,8.454239,-0.16365051,-0.019638062,-0.10787964,17.463684,-21.025085,-46.684265,0.140889013,2.822461737,8.603942653,-0.023080036,0.138915088,-0.046457056,16.39627519,-20.97066397,-46.54199025
8.05E+12,0.4723816,3.2399292,8.543091,-0.19024658,-0.09635925,-0.12515259,17.463684,-21.025085,-46.684265,0.164846376,2.866359963,8.588972288,-0.037137083,0.123059773,-0.052599314,16.50301607,-20.97610607,-46.55621773
8.05E+12,0.5157471,3.2222748,8.711868,-0.22294617,-0.16859436,-0.14538574,17.956543,-21.025085,-46.925354,0.195599899,2.903716887,8.584384159,-0.052448033,0.101117871,-0.059854642,16.59908286,-20.98100397,-46.56902245
8.05E+12,0.5495148,3.1826935,8.915329,-0.26226807,-0.23173523,-0.1676178,17.956543,-21.025085,-46.925354,0.227614619,2.935572678,8.597132543,-0.069497847,0.074146648,-0.068407752,16.73482888,-20.98541207,-46.60465561
8.05E+12,0.54255676,3.1248322,9.129318,-0.30282593,-0.2799225,-0.18969727,17.956543,-21.025085,-46.925354,0.259804637,2.96028476,8.628952189,-0.088774869,0.04355846,-0.078328756,16.85700029,-20.98937936,-46.63672545
8.05E+12,0.5216675,3.0814056,9.4075775,-0.34320068,-0.3177185,-0.21095276,17.956543,-21.025085,-46.925354,0.288079849,2.976739504,8.67898877,-0.110179975,0.011210364,-0.089465608,16.96695456,-20.99294993,-46.6655883
8.05E+12,0.41244507,3.009674,9.741119,-0.384552,-0.34710693,-0.23320007,17.610168,-21.255493,-47.14966,0.311438614,2.987206114,8.751847643,-0.133482045,-0.021682523,-0.101614323,17.0659134,-20.99616343,-46.69156487
8.05E+12,0.27201843,2.9189453,10.084183,-0.41603088,-0.36653137,-0.25245667,17.610168,-21.255493,-47.14966,0.32153926,2.989452902,8.850774779,-0.158589041,-0.054224963,-0.114772898,17.12033886,-21.02209639,-46.73737438
8.05E+12,0.1269989,2.8046875,10.411194,-0.43754578,-0.3746338,-0.27053833,17.610168,-21.255493,-47.14966,0.316587177,2.982402142,8.974115601,-0.184333225,-0.085455604,-0.128541275,17.16932178,-21.04543605,-46.77860295
8.05E+12,-0.04925537,2.6524506,10.655533,-0.44544983,-0.36825562,-0.28553772,17.610168,-21.255493,-47.14966,0.297628349,2.964630678,9.117823441,-0.20965448,-0.114373424,-0.14274098,17.2134064,-21.06644175,-46.81570865
8.05E+12,-0.21131897,2.5006714,10.833466,-0.43673706,-0.35021973,-0.29284668,16.744995,-21.530151,-47.299194,0.262939977,2.93341267,9.271594397,-0.233234015,-0.139761643,-0.157020654,17.25308256,-21.08534687,-46.84910379
8.05E+12,-0.30012512,2.4448242,10.888092,-0.40979004,-0.3223114,-0.29153442,16.744995,-21.530151,-47.299194,0.215514083,2.890138543,9.427781557,-0.25358432,-0.160807452,-0.170603257,17.2022738,-21.12982728,-46.89411281
8.05E+12,-0.3209381,2.4071503,10.89447,-0.36375427,-0.2848053,-0.28074646,16.744995,-21.530151,-47.299194,0.163950162,2.845607109,9.573812601,-0.269204892,-0.176957847,-0.182696373,17.15654592,-21.16985966,-46.93462093
8.05E+12,-0.26930237,2.4205322,10.770859,-0.307724,-0.24432373,-0.2625122,16.744995,-21.530151,-47.299194,0.115461336,2.801761428,9.705878341,-0.27865983,-0.187742592,-0.192501382,17.11539083,-21.20588879,-46.97107823
8.05E+12,-0.19439697,2.4782257,10.51387,-0.24382019,-0.2052002,-0.23925781,16.412354,-21.195984,-46.757507,0.076984965,2.763638505,9.812376407,-0.281566247,-0.193400706,-0.199502464,17.07835125,-21.23831501,-47.00388981
8.05E+12,-0.058944702,2.5155334,10.142227,-0.17576599,-0.16926575,-0.21536255,16.412354,-21.195984,-46.757507,0.049846772,2.735097225,9.882525766,-0.277791641,-0.194580655,-0.203477998,17.01175152,-21.23408191,-46.97925153
8.05E+12,0.071014404,2.5944824,9.604416,-0.11079407,-0.13471985,-0.19412231,16.412354,-21.195984,-46.757507,0.038967625,2.713140842,9.90849589,-0.267589076,-0.192049165,-0.204666454,16.95181177,-21.23027212,-46.95707708
8.05E+12,0.12150574,2.6972198,8.99408,-0.048217773,-0.098480225,-0.17660522,16.412354,-21.195984,-46.757507,0.042172302,2.701274998,9.878087901,-0.251909575,-0.186316233,-0.203612039,16.89786599,-21.22684331,-46.93712007
8.05E+12,0.17703247,2.811264,8.378387,0.002212524,-0.06956482,-0.16622925,16.551208,-20.779419,-47.572327,0.050105646,2.700869478,9.789687111,-0.231540395,-0.177532632,-0.200911357,16.84931479,-21.22375738,-46.91915876
8.05E+12,0.21463013,2.9385223,7.917816,0.033477783,-0.055786133,-0.16003418,16.551208,-20.779419,-47.572327,0.062798329,2.71190893,9.6485571,-0.208165103,-0.166735851,-0.197443147,16.81950411,-21.17932354,-46.98447559
8.05E+12,0.27911377,3.0641022,7.7473145,0.044906616,-0.055419922,-0.15609741,16.551208,-20.779419,-47.572327,0.077981509,2.734570267,9.47548299,-0.184000815,-0.155640879,-0.19370225,16.7926745,-21.13933308,-47.04326073
8.05E+12,0.3301239,3.1182098,7.5855103,0.041763306,-0.06730652,-0.15203857,16.551208,-20.779419,-47.572327,0.098094735,2.767523461,9.302666141,-0.161110071,-0.145618784,-0.189941766,16.76852785,-21.10334168,-47.09616735
8.05E+12,0.3736267,3.206894,7.50589,0.028060913,-0.08477783,-0.15090942,16.394043,-20.239258,-48.135376,0.121297651,2.802592095,9.130950557,-0.140822734,-0.137787557,-0.186151446,16.74679587,-21.07094941,-47.14378332
8.05E+12,0.3719635,3.2512665,7.509094,0.006759644,-0.1083374,-0.154953,16.394043,-20.239258,-48.135376,0.146530556,2.843022285,8.968444501,-0.123934369,-0.132486585,-0.182627244,16.71152058,-20.98778027,-47.24294259
8.05E+12,0.3081665,3.2088165,7.4603424,-0.014663696,-0.13369751,-0.16479492,16.394043,-20.239258,-48.135376,0.169073851,2.883846707,8.822509451,-0.110864968,-0.130071666,-0.179859819,16.67977282,-20.91292804,-47.33218593
8.05E+12,0.20620728,3.1725464,7.490082,-0.034576416,-0.16152954,-0.1775055,16.394043,-20.239258,-48.135376,0.182983116,2.916343686,8.686292746,-0.101244841,-0.13043425,-0.178353329,16.65119984,-20.84556104,-47.41250494
8.05E+12,0.16557312,3.0637054,7.520111,-0.05429077,-0.18817139,-0.18882751,15.896606,-20.33844,-47.261047,0.185305532,2.941963957,8.566671671,-0.094577998,-0.133543779,-0.178268546,16.62548416,-20.78493073,-47.48479204
8.05E+12,0.1164093,3.0171814,7.6284943,-0.074920654,-0.21070862,-0.19602966,15.896606,-20.33844,-47.261047,0.183332291,2.954138102,8.462015604,-0.090549275,-0.13900654,-0.179324443,16.55259634,-20.74028166,-47.46241754
8.05E+12,0.052963257,2.932602,7.7407837,-0.09613037,-0.22669983,-0.19683838,15.896606,-20.33844,-47.261047,0.176639992,2.960442431,8.378663474,-0.088986413,-0.146176748,-0.180994965,16.48699731,-20.70009749,-47.44228048
8.05E+12,-0.006164551,2.900406,7.9203033,-0.11936951,-0.23620605,-0.19293213,15.896606,-20.33844,-47.261047,0.164272318,2.957658388,8.314875496,-0.089700809,-0.154229057,-0.182579306,16.42795818,-20.66393174,-47.42415714
8.05E+12,-0.04396057,2.813614,8.1772,-0.14039612,-0.23887634,-0.1855011,16.384888,-20.013428,-47.10083,0.147228631,2.951933149,8.275418277,-0.092667679,-0.162426756,-0.183614588,16.37482296,-20.63138257,-47.40784612
8.05E+12,-0.06387329,2.7685547,8.448425,-0.15498352,-0.23898315,-0.17576599,16.384888,-20.013428,-47.10083,0.128109711,2.938101235,8.265596449,-0.097440523,-0.170071714,-0.18380324,16.37582946,-20.56958711,-47.37714451
8.05E+12,-0.030456543,2.7341766,8.596313,-0.15963745,-0.24005127,-0.16281128,16.384888,-20.013428,-47.10083,0.108911411,2.921146581,8.283879304,-0.103194823,-0.176962858,-0.182999515,16.37673532,-20.5139712,-47.34951306
8.05E+12,-0.003372192,2.6912994,8.743027,-0.15963745,-0.24005127,-0.16281128,16.384888,-20.013428,-47.10083,0.094974616,2.902449583,8.315122674,-0.108839086,-0.183271699,-0.180980691,16.37755058,-20.46391688,-47.32464475
8.05E+12,0.029251099,2.6669006,8.934616,-0.13269043,-0.2390747,-0.12705994,16.506958,-19.903564,-47.006226,0.085139935,2.881334565,8.357913106,-0.113918922,-0.188949656,-0.17916375,16.37828433,-20.41886799,-47.30226328
8.05E+12,0.038406372,2.568985,9.048279,-0.1078949,-0.23750305,-0.10699463,16.506958,-19.903564,-47.006226,0.079551051,2.859891168,8.415583396,-0.115796073,-0.193962161,-0.173953369,16.39115169,-20.36733759,-47.27265955
8.05E+12,0.037109375,2.6150665,8.98436,-0.07873535,-0.22955322,-0.08534241,16.506958,-19.903564,-47.006226,0.075436583,2.830800551,8.478852956,-0.115005955,-0.19831625,-0.167257495,16.40273232,-20.32096023,-47.24601619
8.05E+12,0.024383545,2.647049,8.811768,-0.05029297,-0.2157135,-0.06286621,16.06903,-20.166016,-47.0932,0.071603863,2.809227146,8.529403661,-0.111378895,-0.201439947,-0.159065987,16.41315489,-20.27922061,-47.22203718
8.05E+12,0.17344666,2.7745667,8.752914,-0.025527954,-0.1972351,-0.037826538,16.06903,-20.166016,-47.0932,0.066881831,2.793009332,8.557640094,-0.105270302,-0.202867302,-0.149446009,16.3787424,-20.26790015,-47.20915346
8.05E+12,0.40359497,2.8796234,8.667831,-0.004806519,-0.18130493,-0.014465332,16.06903,-20.166016,-47.0932,0.077538314,2.791165068,8.577167485,-0.097296068,-0.202304082,-0.138284062,16.34777116,-20.25771174,-47.19755811
8.05E+12,0.6097717,3.0944977,8.724976,0.009719849,-0.17514038,0.004058838,16.06903,-20.166016,-47.0932,0.110143979,2.800010902,8.586233837,-0.088047113,-0.200204167,-0.125902189,16.31989705,-20.24854216,-47.1871223
8.05E+12,0.77490234,3.1865234,8.726212,0.027633667,-0.17958069,0.014007568,15.881348,-19.979858,-47.82257,0.160106751,2.829459581,8.600108053,-0.078270417,-0.197697788,-0.112906086,16.29481034,-20.24028955,-47.17773007
8.05E+12,0.8353729,3.2310486,8.674652,0.046966553,-0.1927185,0.014297485,15.881348,-19.979858,-47.82257,0.22158631,2.865165963,8.612718448,-0.067680008,-0.195886078,-0.100214721,16.25346411,-20.21424639,-47.24221406
8.05E+12,0.8892822,3.220932,8.520172,0.06855774,-0.20425415,0.00668335,15.881348,-19.979858,-47.82257,0.282964969,2.901754227,8.618911803,-0.056215352,-0.19556932,-0.0887635,16.2162525,-20.19080755,-47.30024966
8.05E+12,0.8359375,3.212387,8.301712,0.08811951,-0.20907593,-0.00479126,15.881348,-19.979858,-47.82257,0.343596692,2.933672004,8.609037823,-0.043738043,-0.196437803,-0.079218815,16.18276205,-20.1697126,-47.35248169
8.05E+12,0.81344604,3.1985626,8.146118,0.101882935,-0.20907593,-0.016784668,16.297913,-19.441223,-48.806763,0.392830773,2.961543504,8.57830524,-0.030552288,-0.197701616,-0.07177606,16.15262064,-20.15072714,-47.39949052
8.05E+12,0.7745209,3.2481232,7.991379,0.10624695,-0.20799255,-0.026794434,16.297913,-19.441223,-48.806763,0.4348923,2.985245413,8.535086516,-0.017308765,-0.198839047,-0.066276921,16.16714988,-20.07977672,-47.54021777
8.05E+12,0.74082947,3.2869568,7.926117,0.09805298,-0.20373535,-0.038772583,16.297913,-19.441223,-48.806763,0.46885516,3.011533192,8.480715765,-0.004953194,-0.199754398,-0.062328672,16.18022619,-20.01592135,-47.66687229
8.05E+12,0.69447327,3.3470306,7.898758,0.081954956,-0.20275879,-0.047470093,16.297913,-19.441223,-48.806763,0.496052591,3.039075553,8.425255888,0.005347424,-0.200152493,-0.059973063,16.19199487,-19.95845152,-47.78086136
8.05E+12,0.64338684,3.3472595,7.9580994,0.06402588,-0.20851135,-0.054031372,16.755676,-19.136047,-49.10431,0.515894659,3.069871058,8.372606099,0.013008177,-0.200413123,-0.058722766,16.20258668,-19.90672866,-47.88345153
8.05E+12,0.5895996,3.3173523,8.060684,0.04763794,-0.22007751,-0.06059265,16.755676,-19.136047,-49.10431,0.528643877,3.097609902,8.331155429,0.018109947,-0.201222945,-0.058253627,16.25789562,-19.8296605,-48.00553737
8.05E+12,0.53518677,3.3283691,8.188385,0.036209106,-0.23469543,-0.06565857,16.755676,-19.136047,-49.10431,0.534739449,3.119584142,8.304108286,0.021062746,-0.203108402,-0.058487529,16.30767365,-19.76029915,-48.11541464
8.05E+12,0.4796753,3.2999878,8.378128,0.028244019,-0.2482605,-0.06802368,16.755676,-19.136047,-49.10431,0.534784181,3.140462638,8.292535958,0.022577382,-0.206267105,-0.059204633,16.35247389,-19.69787393,-48.21430417
8.05E+12,0.4488678,3.3167114,8.6671295,0.020523071,-0.25749207,-0.06713867,15.913391,-19.346619,-48.69232,0.529273293,3.156415154,8.301095162,0.023144046,-0.210466444,-0.060086538,16.3927941,-19.64169124,-48.30330476
8.05E+12,0.49423218,3.3446655,9.00235,0.010681152,-0.26301575,-0.0617218,15.913391,-19.346619,-48.69232,0.521232744,3.172444778,8.337698596,0.022881949,-0.215169007,-0.060791751,16.34485379,-19.61218402,-48.34220628
8.05E+12,0.57670593,3.387207,9.340363,0.004745483,-0.261261,-0.05404663,15.913391,-19.346619,-48.69232,0.518532687,3.189666851,8.404163736,0.021661869,-0.219953681,-0.060884756,16.30170751,-19.58562751,-48.37721765
8.05E+12,0.63749695,3.4395447,9.562119,0.005477905,-0.24946594,-0.045822144,15.913391,-19.346619,-48.69232,0.524350012,3.209420865,8.497783663,0.01997023,-0.224084413,-0.060200943,16.26287586,-19.56172666,-48.40872789
8.05E+12,0.740921,3.4935913,9.757523,0.012588501,-0.230896,-0.037994385,15.060425,-19.587708,-48.9563,0.535664706,3.232433249,8.604217196,0.018520998,-0.226622566,-0.058763063,16.22792737,-19.5402159,-48.4370871
8.05E+12,0.80288696,3.5690765,9.9904175,0.02772522,-0.20536804,-0.032699585,15.060425,-19.587708,-48.9563,0.556190335,3.258549054,8.719547777,0.017927748,-0.227049909,-0.056686196,16.11117714,-19.54496511,-48.48900839
8.05E+12,0.78645325,3.649887,10.159744,0.046936035,-0.17532349,-0.031936646,15.060425,-19.587708,-48.9563,0.580859997,3.289601799,8.846634749,0.018907495,-0.224881722,-0.054287534,16.00610192,-19.5492394,-48.53573755
8.05E+12,0.722702,3.6568909,10.273651,0.067596436,-0.14234924,-0.035079956,15.060425,-19.587708,-48.9563,0.601419323,3.325630319,8.977945674,0.021710349,-0.219925899,-0.052052446,15.91153423,-19.55308626,-48.57779379
8.05E+12,0.5830078,3.574829,10.305145,0.08728027,-0.10324097,-0.04084778,14.866638,-19.651794,-49.272156,0.61354759,3.358756377,9.107516207,0.026298958,-0.212168233,-0.050355197,15.82642331,-19.55654843,-48.61564442
8.05E+12,0.532547,3.5135803,10.177322,0.10731506,-0.05734253,-0.0473938,14.866638,-19.651794,-49.272156,0.610493611,3.380363639,9.227279086,0.032397089,-0.201275507,-0.049404455,15.73044478,-19.56607299,-48.68129557
8.05E+12,0.47763062,3.436325,10.006134,0.12284851,-0.012359619,-0.050827026,14.866638,-19.651794,-49.272156,0.60269895,3.393685305,9.322283377,0.039888886,-0.186882209,-0.049203389,15.6440641,-19.57464509,-48.74038162
8.05E+12,0.48887634,3.4519653,9.938156,0.13293457,0.03302002,-0.047027588,14.866638,-19.651794,-49.272156,0.590192117,3.397949275,9.39066844,0.048184849,-0.16942995,-0.049365753,15.56632149,-19.58235998,-48.79355905
8.05E+12,0.53700256,3.5412445,9.843063,0.13430786,0.066848755,-0.037109375,15.100098,-19.184875,-48.58551,0.58006054,3.403350877,9.445417196,0.056659821,-0.149184953,-0.049131937,15.49635314,-19.58930338,-48.84141875
8.05E+12,0.52285767,3.6298218,9.844742,0.12989807,0.084747314,-0.027008057,15.100098,-19.184875,-48.58551,0.575754742,3.41714024,9.485181776,0.064424625,-0.127581582,-0.04792968,15.45672763,-19.54886054,-48.81582787
8.05E+12,0.49900818,3.6621094,9.869064,0.12185669,0.09213257,-0.01802063,15.100098,-19.184875,-48.58551,0.570465034,3.438408396,9.521137799,0.070971969,-0.106348693,-0.045837518,15.42106466,-19.51246199,-48.79279609
8.05E+12,0.51600647,3.646576,9.872787,0.106918335,0.092315674,-0.012786865,15.100098,-19.184875,-48.58551,0.563319349,3.460778496,9.555930419,0.076060441,-0.086500566,-0.043055829,15.388968,-19.47970329,-48.77206748
8.05E+12,0.566803,3.6807861,9.928436,0.09060669,0.0861969,-0.010360718,14.138794,-19.560242,-47.68524,0.558588061,3.479358246,9.587616077,0.079146231,-0.068618942,-0.040028933,15.360081,-19.45022046,-48.75341173
8.05E+12,0.5823517,3.750763,10.073425,0.06947327,0.07354736,-0.008987427,14.138794,-19.560242,-47.68524,0.559409555,3.499501032,9.621698069,0.080292277,-0.053137358,-0.037062111,15.2379523,-19.46122262,-48.64659456
8.05E+12,0.56803894,3.815155,10.314789,0.04093933,0.058441162,-0.008850098,14.138794,-19.560242,-47.68524,0.561703769,3.524627229,9.666870762,0.079210376,-0.040468886,-0.034254643,15.12803647,-19.47112455,-48.5504591
8.05E+12,0.6026459,3.8493652,10.723373,0.005508423,0.04411316,-0.011795044,14.138794,-19.560242,-47.68524,0.562337287,3.553680006,9.731662586,0.075383271,-0.030577881,-0.031714188,15.02911222,-19.4800363,-48.46393719
8.05E+12,0.6324463,3.7080994,11.163849,-0.03465271,0.032913208,-0.019104004,13.6657715,-19.822693,-47.428894,0.566368148,3.583248525,9.830833627,0.068395787,-0.023108777,-0.029722274,14.9400804,-19.48805687,-48.38606747
8.05E+12,0.6048889,3.5524902,11.54277,-0.06893921,0.029205322,-0.027801514,13.6657715,-19.822693,-47.428894,0.572975963,3.595733613,9.964135165,0.058090937,-0.017506579,-0.028660447,14.81264951,-19.52152048,-48.29035013
8.05E+12,0.516922,3.3070374,12.10228,-0.0945282,0.032058716,-0.03591919,13.6657715,-19.822693,-47.428894,0.576167257,3.591409271,10.12199865,0.045387922,-0.012835389,-0.028574554,14.69796171,-19.55163773,-48.20420451
8.05E+12,0.34532166,3.2005463,12.423843,-0.110580444,0.042129517,-0.039718628,14.700317,-20.341492,-47.932434,0.570242731,3.562972084,10.32002678,0.03139631,-0.008345978,-0.029309017,14.59474269,-19.57874326,-48.12667346
8.05E+12,0.33546448,3.1795502,12.856033,-0.11225891,0.05857849,-0.031906128,14.700317,-20.341492,-47.932434,0.547750624,3.526729506,10.53040841,0.017198635,-0.003298429,-0.030349978,14.60530012,-19.65501813,-48.10724952
8.05E+12,0.16133118,3.128296,13.171677,-0.09933472,0.07557678,-0.019882202,14.700317,-20.341492,-47.932434,0.52652201,3.492011575,10.76297086,0.00425288,0.002889263,-0.030505593,14.61480181,-19.72366552,-48.08976796
8.05E+12,0.059249878,3.0514374,13.448013,-0.06867981,0.0848999,-0.006408691,14.700317,-20.341492,-47.932434,0.490002927,3.455640018,11.00384148,-0.00610588,0.010158015,-0.029443254,14.62335333,-19.78544817,-48.07403457
8.05E+12,-0.066207886,3.0056763,13.512161,-0.024047852,0.08824158,0.011199951,16.345215,-18.94226,-47.587585,0.446927622,3.415219756,11.24825863,-0.012363273,0.017632203,-0.027139798,14.63104969,-19.84105255,-48.05987451
8.05E+12,-0.15032959,2.995041,13.395386,0.03138733,0.09236145,0.030929565,16.345215,-18.94226,-47.587585,0.395614071,3.37426541,11.47464887,-0.013531731,0.024693141,-0.023305823,14.80246622,-19.7511733,-48.01264556
8.05E+12,-0.19641113,2.970337,13.214249,0.09388733,0.09687805,0.05718994,16.345215,-18.94226,-47.587585,0.341019705,3.336342969,11.66672258,-0.009039825,0.031459972,-0.017882284,14.9567411,-19.67028197,-47.9701395
8.05E+12,-0.26794434,2.963623,13.136337,0.14587402,0.09996033,0.07807922,16.345215,-18.94226,-47.587585,0.287276621,3.299742372,11.82147522,0.001252891,0.03800178,-0.010375062,15.09558849,-19.59747977,-47.93188405
8.05E+12,-0.23725891,2.9893036,13.082565,0.18247986,0.10279846,0.099624634,16.755676,-18.449402,-47.428894,0.231754525,3.266130435,11.9529614,0.015715004,0.044197635,-0.001529634,15.22055114,-19.53195779,-47.89745415
8.05E+12,-0.18904114,3.0236664,12.933212,0.20458984,0.1103363,0.11831665,16.755676,-18.449402,-47.428894,0.184853182,3.238447752,12.06592176,0.032391489,0.050057717,0.008585793,15.37406363,-19.42370221,-47.85059813
8.05E+12,-0.11643982,3.1121216,12.805801,0.21723938,0.12705994,0.13168335,16.755676,-18.449402,-47.428894,0.14746375,3.216969616,12.15265078,0.049611324,0.056085576,0.019558879,15.51222487,-19.32627219,-47.80842772
8.05E+12,-0.10626221,3.2389374,12.571106,0.21839905,0.15074158,0.1379242,16.755676,-18.449402,-47.428894,0.121073393,3.206484815,12.21796581,0.06637413,0.063183012,0.030771326,15.63656998,-19.23858517,-47.77047435
8.05E+12,-0.106796265,3.31044,12.320496,0.20274353,0.18721008,0.1377716,14.920044,-19.720459,-48.391724,0.098339832,3.209730073,12.25327983,0.081576622,0.071938869,0.041486613,15.74848058,-19.15966686,-47.73631631
8.05E+12,-0.1356659,3.3567047,12.015198,0.17402649,0.22895813,0.12857056,14.920044,-19.720459,-48.391724,0.077826223,3.219801066,12.26000144,0.093693313,0.08346599,0.051115112,15.66563692,-19.21574607,-47.80185708
8.05E+12,-0.2002716,3.2993927,11.736206,0.13502502,0.2680664,0.11073303,14.920044,-19.720459,-48.391724,0.05647701,3.233491429,12.2355211,0.10172663,0.098015204,0.058860657,15.59107763,-19.26621736,-47.86084377
8.05E+12,-0.2748413,3.173355,11.601746,0.09156799,0.29597473,0.08621216,14.920044,-19.720459,-48.391724,0.030802149,3.240081556,12.18558959,0.105056469,0.115020324,0.064047894,15.52397427,-19.31164153,-47.9139318
8.05E+12,-0.3917694,2.983078,11.49678,0.045272827,0.31617737,0.05999756,15.519714,-19.85321,-47.90497,0.000237804,3.233408901,12.12720523,0.103707621,0.133115764,0.066264321,15.46358124,-19.35252327,-47.96171102
8.05E+12,-0.5061798,2.8118896,11.379913,-0.008239746,0.33836365,0.03627014,15.519714,-19.85321,-47.90497,-0.038962916,3.208375811,12.06416271,0.097864142,0.151421925,0.065637645,15.46919452,-19.40259195,-47.95603691
8.05E+12,-0.59539795,2.7848358,11.248001,-0.070114136,0.36631775,0.018173218,15.519714,-19.85321,-47.90497,-0.085684604,3.16872719,11.99573774,0.087253753,0.170116097,0.062700894,15.47424647,-19.44765375,-47.95093022
8.05E+12,-0.6818085,2.7761383,11.232956,-0.1260376,0.3873291,0.008575439,15.519714,-19.85321,-47.90497,-0.136655939,3.130338051,11.92096406,0.071516964,0.189736263,0.058248127,15.47879322,-19.48820938,-47.9463342
8.05E+12,-0.7779999,2.676773,11.245026,-0.17538452,0.38890076,0.002044678,15.725708,-19.822693,-47.76306,-0.191171195,3.094918076,11.85216326,0.051761508,0.209495546,0.053280858,15.4828853,-19.52470944,-47.94219778
8.05E+12,-0.84381104,2.5271149,11.323502,-0.2130127,0.3640747,-0.004013062,15.725708,-19.822693,-47.76306,-0.249854066,3.053103568,11.79144953,0.029046905,0.227436068,0.04815724,15.50716757,-19.5545078,-47.924284
8.06E+12,-0.8721924,2.3213959,11.467361,-0.23316956,0.3158722,-0.008255005,15.725708,-19.822693,-47.76306,-0.309249763,3.000504701,11.74465478,0.004840945,0.241099931,0.04294021,15.52902161,-19.58132632,-47.9081616
8.06E+12,-0.90382385,2.1069336,11.551865,-0.23872375,0.24757385,-0.009368897,15.725708,-19.822693,-47.76306,-0.365544027,2.932593821,11.7169254,-0.018960106,0.248577158,0.037820688,15.54869025,-19.60546298,-47.89365144
8.06E+12,-0.917923,1.9841919,11.548386,-0.23402405,0.17050171,-0.007019043,15.725708,-20.741272,-48.658752,-0.419372009,2.850027799,11.70041936,-0.04093647,0.248476827,0.03310173,15.56639202,-19.62718599,-47.8805923
8.06E+12,-0.91352844,1.9056396,11.571808,-0.22999573,0.10194397,-0.001220703,15.725708,-20.741272,-48.658752,-0.469227108,2.763444209,11.68521602,-0.060245228,0.240679315,0.029089652,15.58232362,-19.73859459,-47.95840827
8.06E+12,-0.8436432,1.8269653,11.624069,-0.23371887,0.045898438,0.006439209,15.725708,-20.741272,-48.658752,-0.513657241,2.677663748,11.67387522,-0.077220278,0.226805781,0.026058617,15.59666206,-19.83886233,-48.02844264
8.06E+12,-0.67367554,1.7671356,11.736206,-0.24813843,0.004562378,0.013397217,15.725708,-20.741272,-48.658752,-0.546655837,2.592593903,11.6688946,-0.092870138,0.208715047,0.024096676,15.60956665,-19.9291033,-48.09147358
8.06E+12,-0.45321655,1.7233582,11.868149,-0.26654053,-0.0259552,0.01965332,15.725708,-19.619751,-47.564697,-0.559357807,2.510048073,11.67562574,-0.108396967,0.18829978,0.02302673,15.62118079,-20.01032017,-48.14820142
8.06E+12,-0.35035706,1.6690063,12.023621,-0.28240967,-0.056793213,0.025650024,15.725708,-19.619751,-47.564697,-0.548743682,2.431379086,11.69487807,-0.124211323,0.166874282,0.022689389,15.63163351,-19.97126325,-48.08985098
8.06E+12,-0.4111328,1.539978,12.159485,-0.28755188,-0.08970642,0.02520752,15.725708,-19.619751,-47.564697,-0.52890502,2.355141807,11.72775236,-0.140031158,0.144507532,0.022985453,15.64104096,-19.93611202,-48.03733558
8.06E+12,-0.51849365,1.3074799,12.280914,-0.28082275,-0.11785889,0.020355225,15.725708,-19.619751,-47.564697,-0.517127798,2.273625426,11.77092562,-0.15478323,0.121086137,0.023207659,15.64950766,-19.90447592,-47.99007172
8.06E+12,-0.5615845,1.1503448,12.345413,-0.26538086,-0.13275146,0.01651001,15.725708,-19.47937,-47.428894,-0.517264383,2.177010874,11.82192446,-0.167387182,0.097191634,0.022922416,15.6571277,-19.87600343,-47.94753425
8.06E+12,-0.6263733,1.0014191,12.260223,-0.24209595,-0.13124084,0.019866943,15.725708,-19.47937,-47.428894,-0.521696395,2.074344266,11.87427331,-0.17718655,0.074197325,0.022281175,15.66398573,-19.83634009,-47.89567022
8.06E+12,-0.7032776,0.87016296,12.136276,-0.21520996,-0.109451294,0.02897644,15.725708,-19.47937,-47.428894,-0.532164085,1.96705175,11.91286828,-0.18367749,0.053653508,0.022039752,15.67015795,-19.80064308,-47.8489926
8.06E+12,-0.84114075,0.7508087,11.958084,-0.17744446,-0.069366455,0.04560852,15.725708,-19.47937,-47.428894,-0.549275437,1.857362871,11.93520905,-0.186830737,0.037343028,0.022733421,15.67571296,-19.76851577,-47.80698274
8.06E+12,-0.92848206,0.6411743,11.594101,-0.13424683,-0.02104187,0.06781006,15.229797,-20.306396,-48.554993,-0.578461968,1.746707454,11.93749655,-0.185892109,0.02667208,0.025020931,15.68071246,-19.73960119,-47.76917387
8.06E+12,-0.9824524,0.562027,11.1073,-0.08558655,0.03125,0.09649658,15.229797,-20.306396,-48.554993,-0.613463977,1.636154138,11.90315699,-0.180727581,0.021900685,0.029299844,15.63562092,-19.79628067,-47.84775578
8.06E+12,-0.9373627,0.59147644,10.611649,-0.03942871,0.08258057,0.12974548,15.229797,-20.306396,-48.554993,-0.650362819,1.528741425,11.82357129,-0.171213478,0.022835616,0.036019517,15.59503852,-19.84729221,-47.9184795
8.06E+12,-0.8684845,0.5926666,10.083969,-0.002319336,0.13891602,0.16267395,15.229797,-20.306396,-48.554993,-0.679062807,1.435014926,11.70237907,-0.158035001,0.028810112,0.045392114,15.55851437,-19.89320259,-47.98213085
8.06E+12,-0.71751404,0.6426239,9.526642,0.021057129,0.19378662,0.19325256,14.213562,-19.343567,-47.628784,-0.698004977,1.350780093,11.54053806,-0.142463435,0.039820703,0.057120297,15.52564264,-19.93452193,-48.03941707
8.06E+12,-0.61753845,0.71055603,9.050171,0.03529358,0.2574463,0.22497559,14.213562,-19.343567,-47.628784,-0.699955883,1.279964474,11.33914845,-0.126111378,0.055217294,0.070733524,15.39443457,-19.87542643,-47.99835376
8.06E+12,-0.50627136,0.7555847,8.454712,0.037887573,0.31150818,0.24934387,14.213562,-19.343567,-47.628784,-0.69171414,1.22302363,11.11025071,-0.109970883,0.075440195,0.08615773,15.27634731,-19.82224049,-47.96139678
8.06E+12,-0.45643616,0.86772156,7.9166718,0.036743164,0.35302734,0.2679596,14.213562,-19.343567,-47.628784,-0.673169862,1.176279737,10.84469684,-0.095185037,0.099046993,0.102476344,15.17006878,-19.77437314,-47.92813551
8.06E+12,-0.36351013,0.9947357,7.3935547,0.028030396,0.3751831,0.28085327,14.213562,-19.343567,-47.628784,-0.651496492,1.145423919,10.55189433,-0.081992217,0.124445028,0.11902467,15.0744181,-19.73129253,-47.89820036
8.06E+12,-0.26643372,1.0398865,7.021103,0.028030396,0.3751831,0.28085327,14.213562,-19.343567,-47.628784,-0.622697855,1.130355097,10.23606037,-0.070989956,0.149518835,0.13520753,14.98833249,-19.69251998,-47.87125872
8.06E+12,-0.3130951,1.185791,6.5855103,0.004806519,0.3527527,0.2923584,14.213562,-19.343567,-47.628784,-0.587071442,1.121308237,9.914564633,-0.06108792,0.172085262,0.149772104,14.91085544,-19.65762468,-47.84701125
8.06E+12,-0.2731018,1.1812897,6.327942,-0.02029419,0.30693054,0.28831482,14.18457,-19.311523,-47.599792,-0.559673808,1.127756514,9.5816592,-0.054498477,0.190152006,0.164030733,14.8411261,-19.62621891,-47.82518852
8.06E+12,-0.3362732,1.2588348,6.1840363,-0.048355103,0.25151062,0.2795105,14.18457,-19.311523,-47.599792,-0.531016607,1.133109832,9.25628748,-0.051078048,0.201829859,0.176459142,14.77547049,-19.59474932,-47.80264887
8.06E+12,-0.26924133,1.3109283,6.19606,-0.07977295,0.18411255,0.2703247,14.18457,-19.311523,-47.599792,-0.511542266,1.145682329,8.949062362,-0.050805753,0.206797935,0.186764278,14.71638044,-19.56642669,-47.78236318
8.06E+12,-0.32518005,1.3449707,6.198944,-0.11097717,0.10270691,0.25772095,14.18457,-19.311523,-47.599792,-0.487312173,1.162206926,8.673762126,-0.053702473,0.204529397,0.19512032,14.6631994,-19.54093632,-47.76410607
8.06E+12,-0.38056946,1.2260132,6.371002,-0.14343262,0.015136719,0.24281311,14.877319,-19.685364,-48.254395,-0.47109896,1.180483304,8.426280313,-0.059429943,0.194347148,0.201380383,14.61533646,-19.51799499,-47.74767466
8.06E+12,-0.45732117,1.065506,6.585388,-0.17037964,-0.068878174,0.22982788,14.877319,-19.685364,-48.254395,-0.46204601,1.185036293,8.220752482,-0.06783021,0.176426105,0.205523656,14.64153471,-19.53473189,-47.79834669
8.06E+12,-0.41275024,0.9952698,6.823944,-0.1993103,-0.15486145,0.21977234,14.877319,-19.685364,-48.254395,-0.461573526,1.173083264,8.057216034,-0.078085153,0.151895677,0.207954078,14.66511314,-19.5497951,-47.84395152
8.06E+12,-0.37660217,0.9854431,7.0437927,-0.22143555,-0.22563171,0.21681213,14.877319,-19.685364,-48.254395,-0.456691198,1.155301917,7.93388883,-0.090207668,0.121219964,0.209135904,14.68633373,-19.56335199,-47.88499587
8.06E+12,-0.29588318,1.0419464,7.3246,-0.24082947,-0.2866211,0.21884155,15.209961,-20.681763,-47.93091,-0.448682295,1.138316036,7.844879217,-0.103330456,0.086534797,0.209903527,14.70543225,-19.57555319,-47.92193578
8.06E+12,-0.27833557,1.0792084,7.6700745,-0.25808716,-0.33831787,0.22322083,15.209961,-20.681763,-47.93091,-0.433402383,1.128679072,7.792851295,-0.117080358,0.049219207,0.210797329,14.75588513,-19.68617417,-47.92283321
8.06E+12,-0.22964478,1.0383606,8.0816345,-0.27095032,-0.37869263,0.2268219,15.209961,-20.681763,-47.93091,-0.417895702,1.123732005,7.780573616,-0.131181038,0.0104655,0.212039679,14.80129272,-19.78573305,-47.92364089
8.06E+12,-0.15046692,0.9671478,8.501434,-0.2805786,-0.40698242,0.22827148,15.209961,-20.681763,-47.93091,-0.39907061,1.115194864,7.810679704,-0.145157966,-0.028450313,0.213517901,14.84215954,-19.87533605,-47.9243678
8.06E+12,-0.053756714,0.9536896,8.846451,-0.28489685,-0.41825867,0.22869873,15.209961,-20.655823,-47.982788,-0.374210241,1.100390158,7.879755134,-0.158700029,-0.066303524,0.214993259,14.87893969,-19.95597874,-47.92502202
8.06E+12,0.057495117,1.0041656,9.102386,-0.28053284,-0.40623474,0.23066711,15.209961,-20.655823,-47.982788,-0.342164888,1.085720102,7.97642472,-0.171319712,-0.101499039,0.216363806,14.91204182,-20.02596317,-47.93079862
8.06E+12,0.18417358,1.0591888,9.281982,-0.27285767,-0.3722229,0.23069763,15.209961,-20.655823,-47.982788,-0.302198888,1.077564652,8.089020848,-0.182241024,-0.131972609,0.217794137,14.94183374,-20.08894915,-47.93599755
8.06E+12,0.3043518,1.1493683,9.377762,-0.2637329,-0.31692505,0.22680664,15.209961,-20.655823,-47.982788,-0.253561641,1.075727067,8.208316964,-0.191302689,-0.155997638,0.219084486,14.96864646,-20.14563654,-47.9406766
8.06E+12,0.42240906,1.2710419,9.339645,-0.25268555,-0.24533081,0.22172546,15.174866,-20.132446,-48.60077,-0.197770297,1.08309119,8.325261467,-0.19854571,-0.172090379,0.219856701,14.99277792,-20.19665518,-47.94488774
8.06E+12,0.4316864,1.3256531,9.239761,-0.24023438,-0.15821838,0.21063232,15.174866,-20.132446,-48.60077,-0.135752361,1.101886261,8.426699821,-0.203959694,-0.179414422,0.220043577,15.01098673,-20.19023427,-48.01047596
8.06E+12,0.31137085,1.2537384,9.068817,-0.22549438,-0.05960083,0.19137573,15.174866,-20.132446,-48.60077,-0.079008485,1.124262945,8.508005938,-0.207587163,-0.177294818,0.219102452,15.02737465,-20.18445544,-48.06950537
8.06E+12,0.15148926,1.1854248,8.776459,-0.21142578,0.03668213,0.17019653,15.174866,-20.132446,-48.60077,-0.039970552,1.13721049,8.564087045,-0.209377884,-0.165525419,0.216329779,15.04212379,-20.17925449,-48.12263183
8.06E+12,-0.010513306,1.1309509,8.45639,-0.19769287,0.1299591,0.15245056,14.866638,-18.278503,-48.60077,-0.02082457,1.142031921,8.58532424,-0.209582674,-0.145304664,0.211716454,15.05539801,-20.17457365,-48.17044565
8.06E+12,-0.16012573,1.0833893,8.094666,-0.18287659,0.21606445,0.14160156,14.866638,-18.278503,-48.60077,-0.019793444,1.140923819,8.572430816,-0.208393694,-0.117778288,0.205789865,15.03652201,-19.98496658,-48.21347808
8.06E+12,-0.2517395,1.0761108,7.6844482,-0.1676178,0.28459167,0.13917542,14.866638,-18.278503,-48.60077,-0.033826673,1.135170367,8.524654335,-0.205841983,-0.084394014,0.199371035,15.01953361,-19.81432022,-48.25220728
8.06E+12,-0.2617035,1.1064453,7.2426147,-0.14706421,0.33587646,0.14419556,14.866638,-18.278503,-48.60077,-0.055617955,1.129264411,8.440633721,-0.202019565,-0.047495446,0.193351473,15.00424405,-19.6607385,-48.28706355
8.06E+12,-0.2733307,1.1503448,6.7994995,-0.11773682,0.36090088,0.15490723,14.866638,-18.278503,-48.69995,-0.07622651,1.1269825,8.320831819,-0.196524029,-0.009158255,0.188435882,14.99048344,-19.52251495,-48.31843419
8.06E+12,-0.25875854,1.1805573,6.4518433,-0.08305359,0.36187744,0.16915894,14.866638,-18.278503,-48.69995,-0.095936929,1.12931873,8.168698587,-0.188645308,0.027847658,0.185083017,14.9780989,-19.39811376,-48.35658577
8.06E+12,-0.20965576,1.2921448,6.090225,-0.044052124,0.34202576,0.18441772,14.866638,-18.278503,-48.69995,-0.11221909,1.134442587,7.997013058,-0.178086137,0.061250637,0.183490609,14.96695281,-19.28615268,-48.3909222
8.06E+12,-0.13160706,1.4053955,5.7016754,-0.003616333,0.3056183,0.20050049,14.866638,-18.278503,-48.69995,-0.121962757,1.150212808,7.806334253,-0.164682735,0.089328149,0.18358332,14.95692133,-19.18538771,-48.42182498
8.06E+12,-0.023345947,1.5457153,5.363785,0.03388977,0.25686646,0.2130127,14.923096,-18.56842,-49.272156,-0.122927187,1.175731077,7.595868367,-0.148576095,0.110957164,0.185275037,14.94789299,-19.09469924,-48.44963748
8.06E+12,0.118881226,1.6660461,5.0569305,0.06968689,0.18713379,0.2230072,14.923096,-18.56842,-49.272156,-0.112969063,1.212729499,7.372660031,-0.130329509,0.125548094,0.188048803,14.9454133,-19.04207132,-48.53188933
8.06E+12,0.19100952,1.7659912,4.960434,0.09710693,0.10847473,0.22850037,14.923096,-18.56842,-49.272156,-0.089784034,1.25806116,7.141087077,-0.110327869,0.131706663,0.191544643,14.94318157,-18.99470618,-48.605916
8.06E+12,0.32615662,1.8385773,5.0225983,0.113464355,0.027893066,0.22669983,14.923096,-18.56842,-49.272156,-0.061704679,1.308854164,6.92302177,-0.089584389,0.12938347,0.195240216,14.94117301,-18.95207757,-48.67254
8.06E+12,0.43955994,1.9574127,5.2127533,0.114990234,-0.042404175,0.22164917,15.209961,-19.995117,-49.272156,-0.022918549,1.361826477,6.732979423,-0.069279514,0.11923443,0.198386177,14.93936531,-18.91371181,-48.7325016
8.06E+12,0.5039978,2.0840607,5.4464874,0.106414795,-0.09703064,0.21052551,15.209961,-19.995117,-49.272156,0.0233293,1.421385099,6.58095681,-0.05085254,0.103070569,0.200712476,14.96642488,-19.02185233,-48.78646704
8.06E+12,0.57733154,2.1128082,5.7705994,0.09007263,-0.12826538,0.19570923,15.209961,-19.995117,-49.272156,0.07139615,1.48765266,6.467509869,-0.035125806,0.083060448,0.20169378,14.99077849,-19.1191788,-48.83503593
8.06E+12,0.56536865,2.1448822,6.0200806,0.06755066,-0.13812256,0.17547607,15.209961,-19.995117,-49.272156,0.121989689,1.550168214,6.397818822,-0.022605963,0.061927865,0.201095325,15.01269674,-19.20677262,-48.87874794
8.06E+12,0.49742126,2.1421356,6.2984924,0.044509888,-0.1214447,0.15464783,15.135193,-19.551086,-49.053955,0.166327585,1.609639612,6.360045,-0.0135903,0.041922823,0.198533399,15.03242317,-19.28560705,-48.91808875
8.06E+12,0.46707153,2.181961,6.5115356,0.023590088,-0.08731079,0.13591003,15.135193,-19.551086,-49.053955,0.199436953,1.662889211,6.35388974,-0.007780281,0.025586071,0.194144842,15.04270015,-19.31215495,-48.93167537
8.06E+12,0.3179474,2.1703033,6.6788483,0.006072998,-0.040893555,0.116363525,15.135193,-19.551086,-49.053955,0.22620041,1.71479639,6.369654326,-0.004643245,0.014296384,0.188321361,15.05194943,-19.33604805,-48.94390334
8.06E+12,0.22088623,2.149994,6.9181213,0.006072998,-0.040893555,0.116363525,15.135193,-19.551086,-49.053955,0.235375109,1.760347081,6.400573724,-0.00357162,0.008777391,0.181125578,15.06027379,-19.35755185,-48.9549085
8.06E+12,0.17442322,2.1823425,7.15152,-0.001647949,0.038330078,0.08874512,14.94751,-18.34259,-47.947693,0.233926221,1.799311773,6.452328481,-0.002607158,0.003810296,0.174649372,15.06776571,-19.37690526,-48.96481315
8.06E+12,0.06173706,2.0995636,7.281708,0.010467529,0.06808472,0.08061218,14.94751,-18.34259,-47.947693,0.227975921,1.837614846,6.522247633,-0.002511238,0.007262274,0.166058947,15.05574014,-19.27347374,-48.86310114
8.06E+12,-0.07362366,1.998642,7.217102,0.033828735,0.09454346,0.076797485,14.94751,-18.34259,-47.947693,0.211352035,1.863809721,6.59819367,-0.001213361,0.013344519,0.15751427,15.04491713,-19.18038536,-48.77156032
8.06E+12,-0.12889099,1.9718475,7.1842194,0.061294556,0.12286377,0.07980347,15.209961,-19.651794,-46.925354,0.182854466,1.877292949,6.660084503,0.002290849,0.021464413,0.149442592,15.03517641,-19.09660583,-48.68917359
8.06E+12,-0.115112305,2.0907288,7.036331,0.088897705,0.14979553,0.09059143,15.209961,-19.651794,-46.925354,0.15167992,1.886748404,6.712497993,0.008191219,0.031604349,0.14247868,15.05265487,-19.15212464,-48.51279163
8.06E+12,-0.09750366,2.1939545,6.936905,0.110702515,0.1743927,0.1078949,15.209961,-19.651794,-46.925354,0.125000698,1.907146444,6.744881293,0.016261868,0.043423467,0.137289955,15.06838549,-19.20209158,-48.35404787
8.06E+12,-0.012252808,2.2943115,6.7754364,0.125,0.1949768,0.12425232,15.209961,-19.651794,-46.925354,0.102750262,1.935827249,6.764083664,0.025705933,0.05652039,0.134350449,15.08254304,-19.24706182,-48.21117848
8.06E+12,0.03945923,2.3394623,6.81868,0.12934875,0.20768738,0.14089966,14.912415,-19.554138,-47.60132,0.091249955,1.971675674,6.765218938,0.035635339,0.070366031,0.133340636,15.09528483,-19.28753504,-48.08259603
8.06E+12,0.13983154,2.4605713,6.9492035,0.125,0.21282959,0.15245056,14.912415,-19.554138,-47.60132,0.086070882,2.008454337,6.770565044,0.04500668,0.084098166,0.134096539,15.07699785,-19.31419534,-48.03446843
8.06E+12,0.20013428,2.5823975,7.1327667,0.112716675,0.21044922,0.16175842,14.912415,-19.554138,-47.60132,0.091446948,2.053666033,6.788428889,0.053006012,0.096971308,0.135931941,15.06053956,-19.3381896,-47.99115359
8.06E+12,0.25697327,2.6917725,7.3521423,0.09992981,0.19807434,0.16738892,14.912415,-19.554138,-47.60132,0.102315681,2.10653918,6.82286267,0.058977079,0.1083191,0.138514589,15.04572711,-19.35978444,-47.95217023
8.06E+12,0.2618103,2.7941132,7.526779,0.08987427,0.1773529,0.16595459,14.389038,-19.519043,-49.066162,0.11778144,2.165062512,6.875790633,0.063072352,0.117294624,0.141402022,15.0323959,-19.3792198,-47.91708521
8.06E+12,0.2292633,2.8578491,7.7086945,0.084609985,0.15008545,0.15904236,14.389038,-19.519043,-49.066162,0.132184326,2.227967581,6.94088947,0.065752544,0.123300451,0.143857279,14.96806011,-19.39320212,-48.03199288
8.06E+12,0.14772034,2.857895,8.005417,0.07737732,0.1085968,0.14414978,14.389038,-19.519043,-49.066162,0.141892224,2.290955733,7.017669973,0.067638288,0.125978951,0.145375787,14.9101579,-19.40578621,-48.1354098
8.06E+12,0.005050659,2.815506,8.512543,0.0667572,0.061798096,0.12440491,14.389038,-19.519043,-49.066162,0.142475035,2.347649659,7.116444676,0.068612191,0.124240736,0.145253186,14.85804591,-19.41711189,-48.22848502
8.06E+12,-0.08483887,2.7946472,9.189545,0.053451538,0.011245728,0.10331726,14.866638,-19.995117,-48.60077,0.128732598,2.394435293,7.256054508,0.068426692,0.117996472,0.143168358,14.81114512,-19.427305,-48.31225272
8.06E+12,-0.1580658,2.7525635,9.888824,0.04168701,-0.034332275,0.085861206,14.866638,-19.995117,-48.60077,0.107375451,2.434456484,7.449403557,0.066929177,0.107321398,0.139183249,14.8166944,-19.4840862,-48.34110444
8.06E+12,-0.21873474,2.6377106,10.513657,0.04135132,-0.07373047,0.072525024,14.866638,-19.995117,-48.60077,0.080831326,2.466267186,7.693345602,0.06440496,0.09315603,0.133851044,14.82168876,-19.53518928,-48.367071
8.06E+12,-0.30410767,2.4855957,11.14743,0.05783081,-0.1048584,0.060928345,14.866638,-19.995117,-48.60077,0.050874719,2.483411527,7.975376741,0.062099596,0.07646738,0.127718442,14.82618369,-19.58118205,-48.3904409
8.06E+12,-0.3759613,2.321167,11.462219,0.095687866,-0.12753296,0.054229736,14.927673,-19.56482,-48.66028,0.01537648,2.483629944,8.292582067,0.061672717,0.058334802,0.121039433,14.83022912,-19.62257554,-48.41147381
8.06E+12,-0.38319397,2.1611328,11.593658,0.14756775,-0.13859558,0.05418396,14.927673,-19.56482,-48.66028,-0.023757298,2.46738365,8.609545761,0.065074232,0.039748026,0.114358463,14.83997351,-19.61679999,-48.43635443
8.06E+12,-0.39067078,2.0865784,11.692596,0.20315552,-0.13679504,0.05860901,14.927673,-19.56482,-48.66028,-0.059700965,2.436758565,8.907956985,0.073323584,0.021913665,0.108341013,14.84874346,-19.61160199,-48.45874699
8.06E+12,-0.3748474,2.0574493,11.90892,0.24787903,-0.12449646,0.06866455,14.927673,-19.56482,-48.66028,-0.092797947,2.401740548,9.186420886,0.086306778,0.006042795,0.103367812,14.85663641,-19.60692379,-48.47890029
8.06E+12,-0.29815674,2.006546,12.147125,0.27452087,-0.10423279,0.08294678,14.653015,-19.050598,-49.269104,-0.121002892,2.367311424,9.458670797,0.102464003,-0.007011131,0.099897486,14.86374007,-19.60271341,-48.49703826
8.06E+12,-0.22259521,1.9322357,12.337799,0.28536987,-0.070495605,0.09887695,14.653015,-19.050598,-49.269104,-0.138718277,2.331234881,9.727516218,0.11966969,-0.016733297,0.098202416,14.84266756,-19.54750187,-48.57424483
8.06E+12,-0.115371704,1.9046478,12.5125885,0.28678894,-0.020629883,0.11340332,14.653015,-19.050598,-49.269104,-0.14710597,2.291334963,9.988544496,0.136239708,-0.022109527,0.098269869,14.82370231,-19.49781148,-48.64373075
8.06E+12,0.0128479,1.9428253,12.481689,0.28126526,0.037841797,0.12654114,14.653015,-19.050598,-49.269104,-0.143932543,2.252666247,10.2409489,0.151294631,-0.021961563,0.099783214,14.80663358,-19.45309014,-48.70626807
8.06E+12,0.12802124,2.0168762,12.340363,0.26756287,0.10031128,0.13748169,14.009094,-19.47937,-50.109863,-0.128254499,2.221682152,10.46502291,0.164291694,-0.015981227,0.102459007,14.79127172,-19.41284092,-48.76255167
8.06E+12,0.22180176,2.1017914,12.204773,0.24380493,0.15852356,0.14289856,14.009094,-19.47937,-50.109863,-0.102626925,2.201201557,10.65255692,0.174618811,-0.004351976,0.105961275,14.71305395,-19.41949383,-48.8972828
8.06E+12,0.32867432,2.1883545,12.115616,0.21080017,0.20014954,0.1403656,14.009094,-19.47937,-50.109863,-0.070184057,2.191260541,10.80777852,0.181537423,0.011935577,0.109655004,14.64265795,-19.42548145,-49.01854082
8.06E+12,0.5309448,2.2164307,12.258972,0.16545105,0.2272644,0.12944031,14.009094,-19.47937,-50.109863,-0.030298219,2.190969937,10.93856227,0.184463698,0.030756974,0.112726063,14.57930156,-19.4308703,-49.12767304
8.06E+12,0.70495605,2.2535553,12.559921,0.11172485,0.23474121,0.113601685,14.889526,-19.332886,-48.81897,0.025826083,2.193516013,11.07060324,0.182562433,0.050407716,0.114397488,14.5222808,-19.43572027,-49.22589203
8.06E+12,0.9353485,2.273056,12.884552,0.05783081,0.22019958,0.089660645,14.889526,-19.332886,-48.81897,0.09373908,2.199519942,11.21953502,0.175478675,0.068841066,0.114317908,14.55900532,-19.42543685,-49.18519983
8.06E+12,1.0760803,2.2514954,13.14183,0.01260376,0.18304443,0.05545044,14.889526,-19.332886,-48.81897,0.177900022,2.206873548,11.38603672,0.163713888,0.083976917,0.111852181,14.59205739,-19.41618176,-49.14857685
8.06E+12,1.0932312,2.149887,13.341003,-0.014785767,0.11936951,0.015014648,14.889526,-19.332886,-48.81897,0.267718049,2.211335733,11.56161605,0.148602875,0.093883668,0.106212007,14.62180425,-19.40785218,-49.11561616
8.06E+12,0.9556732,1.9820251,13.611984,-0.021255493,0.0382843,-0.030944824,15.534973,-20.126343,-47.613525,0.350269365,2.20519086,11.73955474,0.132264011,0.096432253,0.097092271,14.64857642,-19.40035557,-49.08595155
8.06E+12,0.68955994,1.7516937,13.755768,-0.009796143,-0.07170105,-0.088409424,15.534973,-20.126343,-47.613525,0.410809748,2.182874284,11.92679767,0.116912061,0.090617457,0.084288562,14.73721608,-19.47295431,-48.93870889
8.06E+12,0.37820435,1.4396667,13.964462,0.015228272,-0.18591309,-0.1350708,15.534973,-20.126343,-47.613525,0.438684767,2.139756225,12.1096947,0.10424124,0.074385607,0.067018763,14.81699177,-19.53829318,-48.8061905
8.06E+12,0.09700012,1.2124481,14.126022,0.048461914,-0.28981018,-0.16999817,15.534973,-20.126343,-47.613525,0.432636726,2.069747273,12.29517143,0.095339944,0.048355737,0.046809807,14.8887899,-19.59709816,-48.68692395
8.06E+12,-0.109191895,0.99516296,14.180084,0.07814026,-0.372818,-0.18850708,14.866638,-21.368408,-48.2666,0.399073065,1.984017356,12.47825649,0.090652141,0.014539145,0.025129009,14.95340821,-19.65002264,-48.57958406
8.06E+12,-0.12510681,0.86875916,14.035904,0.10769653,-0.42990112,-0.18830872,14.866638,-21.368408,-48.2666,0.348246569,1.885131916,12.64843924,0.089400953,-0.024196569,0.0037654,14.94473119,-19.82186118,-48.54828565
8.06E+12,-0.05319214,0.8069,13.793747,0.13311768,-0.45991516,-0.17346191,14.866638,-21.368408,-48.2666,0.300911231,1.78349464,12.78718572,0.09123051,-0.064767024,-0.015442012,14.93692187,-19.97651586,-48.52011709
8.06E+12,0.059158325,0.8297882,13.628586,0.15449524,-0.47502136,-0.14846802,15.122986,-19.743347,-47.514343,0.265500894,1.685835176,12.88784184,0.095419227,-0.104281838,-0.031244002,14.92989348,-20.11570508,-48.49476538
8.06E+12,0.10978699,0.81211853,13.222443,0.1673584,-0.4723053,-0.12435913,15.122986,-19.743347,-47.514343,0.244866637,1.600230479,12.96191626,0.101326829,-0.14135579,-0.042966403,14.94920273,-20.07846927,-48.39672314
8.06E+12,0.15248108,0.7992859,12.792633,0.17208862,-0.45515442,-0.09950256,15.122986,-19.743347,-47.514343,0.231358672,1.521419284,12.98796893,0.107929986,-0.174450741,-0.051105676,14.96658106,-20.04495704,-48.30848513
8.06E+12,0.22026062,0.94311523,12.3428955,0.16404724,-0.42625427,-0.08027649,15.122986,-19.743347,-47.514343,0.223470913,1.449205945,12.96843534,0.114345849,-0.202521109,-0.055945364,14.98222155,-20.01479604,-48.22907091
8.06E+12,0.3867035,1.1334839,12.211594,0.13922119,-0.39317322,-0.06665039,14.503479,-19.335938,-47.78595,0.223149884,1.398596874,12.90588136,0.119315988,-0.224894425,-0.058378477,14.996298,-19.98765113,-48.15759812
8.06E+12,0.4459076,1.2690582,11.975235,0.1058197,-0.3659973,-0.057785034,14.503479,-19.335938,-47.78595,0.239505245,1.372085577,12.83645262,0.121306508,-0.241722305,-0.059205668,14.9470161,-19.92247982,-48.12043331
8.06E+12,0.5031433,1.3447113,11.97847,0.058883667,-0.3461151,-0.05609131,14.503479,-19.335938,-47.78595,0.260145481,1.361782839,12.75033086,0.119757828,-0.254149804,-0.059063605,14.90266239,-19.86382564,-48.08698498
8.06E+12,0.5923004,1.3943787,11.899063,0.014190674,-0.3354187,-0.06600952,14.503479,-19.335938,-47.78595,0.284445263,1.360075685,12.67314477,0.113670411,-0.263346334,-0.058766375,14.86274405,-19.81103687,-48.05688148
8.06E+12,0.6921997,1.4966736,11.813873,-0.029541016,-0.33148193,-0.08262634,13.6657715,-20.509338,-48.768616,0.315230777,1.363505986,12.5957366,0.103722438,-0.27055357,-0.05949069,14.82681754,-19.76352699,-48.02978833
8.06E+12,0.80366516,1.6555939,11.7977295,-0.07369995,-0.32954407,-0.10575867,13.6657715,-20.509338,-48.768616,0.352927669,1.376822748,12.51755024,0.090396092,-0.276646406,-0.061804255,14.71071294,-19.83810809,-48.1036711
8.06E+12,1.0095367,1.7618561,11.827515,-0.120651245,-0.32847595,-0.13546753,13.6657715,-20.509338,-48.768616,0.398001418,1.404699863,12.44556816,0.073986488,-0.281936173,-0.066199696,14.6062188,-19.90523108,-48.17016559
8.06E+12,1.2254486,1.8190155,12.075684,-0.17092896,-0.32810974,-0.17358398,13.6657715,-20.509338,-48.768616,0.459154946,1.440415487,12.38376285,0.054522715,-0.28659015,-0.07312648,14.51217407,-19.96564177,-48.23001063
8.06E+12,1.4033203,1.8139648,12.442459,-0.22698975,-0.32946777,-0.22525024,13.957214,-20.217896,-48.86322,0.535784312,1.478275488,12.35295496,0.031977547,-0.290742109,-0.08317223,14.42753381,-20.02001139,-48.28387117
8.06E+12,1.4813995,1.7970734,12.82486,-0.27534485,-0.3280182,-0.28199768,13.957214,-20.217896,-48.86322,0.62253791,1.511844419,12.36190537,0.006080818,-0.294614675,-0.097380031,14.38050183,-20.03979985,-48.34180605
8.06E+12,1.4247589,1.6312103,13.038437,-0.31019592,-0.32250977,-0.34571838,13.957214,-20.217896,-48.86322,0.708424069,1.540367317,12.40820083,-0.022061749,-0.297955028,-0.115841796,14.33817305,-20.05760947,-48.39394745
8.06E+12,1.2636108,1.3942261,13.088638,-0.32731628,-0.3058319,-0.41004944,13.957214,-20.217896,-48.86322,0.780057552,1.549451616,12.47122445,-0.050875166,-0.300410502,-0.138829454,14.30007714,-20.07363812,-48.4408747
8.06E+12,0.97994995,1.1472626,13.105331,-0.33155823,-0.27827454,-0.47123718,14.079285,-19.29779,-48.254395,0.828412877,1.533929064,12.5329658,-0.078519278,-0.300952642,-0.165951453,14.26579083,-20.08806391,-48.48310923
8.06E+12,0.5607605,0.80070496,13.084473,-0.32289124,-0.24429321,-0.5254822,14.079285,-19.29779,-48.254395,0.843566584,1.495262418,12.59020232,-0.103823173,-0.298684832,-0.196480025,14.24714024,-20.00903652,-48.46023781
8.06E+12,0.18305969,0.46081543,13.024902,-0.29919434,-0.2050476,-0.5654144,14.079285,-19.29779,-48.254395,0.815285976,1.425806672,12.63962939,-0.12572998,-0.29324567,-0.229380243,14.23035472,-19.93791187,-48.43965353
8.06E+12,-0.11691284,0.13632202,12.845627,-0.26493835,-0.16233826,-0.5787201,14.079285,-19.29779,-48.254395,0.752063347,1.329307548,12.67815665,-0.143076416,-0.284425863,-0.262983659,14.21524775,-19.87389968,-48.42112767
8.06E+12,-0.31399536,-0.06402588,12.540482,-0.21868896,-0.11061096,-0.56573486,14.009094,-18.792725,-47.76306,0.665165729,1.210008995,12.69490369,-0.155262609,-0.272217102,-0.294557303,14.20165147,-19.81628871,-48.40445441
8.06E+12,-0.47000122,-0.14497375,12.165466,-0.16468811,-0.053329468,-0.5298004,14.009094,-18.792725,-47.76306,0.56724962,1.082605507,12.67946152,-0.161605244,-0.256056488,-0.321675058,14.18239573,-19.71393234,-48.34031497
8.06E+12,-0.5218048,-0.18009949,11.656189,-0.10787964,0.001922607,-0.47721863,14.009094,-18.792725,-47.76306,0.463524536,0.959847582,12.62806196,-0.161913531,-0.235783786,-0.342487593,14.16506555,-19.62181161,-48.28258947
8.06E+12,-0.44537354,-0.14299011,11.080566,-0.045425415,0.056121826,-0.40982056,14.009094,-18.792725,-47.76306,0.364991602,0.845852875,12.53087467,-0.156510142,-0.212013147,-0.355960696,14.1494684,-19.53890295,-48.23063652
8.06E+12,-0.2535553,-0.03227234,10.44043,0.02130127,0.100616455,-0.33335876,13.789368,-19.230652,-48.831177,0.283955088,0.746968576,12.3858438,-0.145401669,-0.185199649,-0.361346683,14.13543096,-19.46428515,-48.18387887
8.06E+12,0.04650879,0.19644165,9.677689,0.08744812,0.12773132,-0.2569275,13.789368,-19.230652,-48.831177,0.230204049,0.669044484,12.19130242,-0.128731375,-0.156618039,-0.35854789,14.10082466,-19.44092184,-48.24860868
8.06E+12,0.37828064,0.5249176,8.897247,0.14956665,0.1412201,-0.18493652,13.789368,-19.230652,-48.831177,0.211834523,0.621784201,11.93994108,-0.107113426,-0.128183103,-0.348385851,14.069679,-19.41989485,-48.30686552
8.06E+12,0.6657562,0.81111145,8.223373,0.19902039,0.13894653,-0.12495422,13.789368,-19.230652,-48.831177,0.228479135,0.612097541,11.63567167,-0.081445418,-0.101242783,-0.332040918,14.0416479,-19.40097057,-48.35929666
8.06E+12,0.88127136,1.0530548,7.6022644,0.23205566,0.12133789,-0.08482361,13.220215,-19.702148,-49.0036,0.272206841,0.631998932,11.2944418,-0.053398837,-0.077223852,-0.311332248,14.01641991,-19.38393871,-48.4064847
8.06E+12,1.1299591,1.2476196,7.0572815,0.25013733,0.09240723,-0.06185913,13.220215,-19.702148,-49.0036,0.333113293,0.674104519,10.92522406,-0.024853388,-0.057367677,-0.288681385,13.93679942,-19.41575964,-48.46619623
8.06E+12,1.345993,1.3778839,6.632492,0.24832153,0.059570313,-0.054611206,13.220215,-19.702148,-49.0036,0.412797874,0.731456027,10.53842981,0.002645684,-0.042390187,-0.265999159,13.86514097,-19.44439848,-48.5199366
8.06E+12,1.489624,1.5519409,6.267639,0.22645569,0.029937744,-0.058441162,13.220215,-19.702148,-49.0036,0.506117387,0.796098814,10.14783603,0.027213269,-0.032194137,-0.244860364,13.80064838,-19.47017343,-48.56830294
8.06E+12,1.5789185,1.6963959,6.059799,0.18276978,0.004745483,-0.076431274,12.979126,-19.822693,-48.768616,0.604468048,0.871683023,9.759816324,0.047137511,-0.025980949,-0.226218444,13.74260504,-19.49337089,-48.61183265
8.06E+12,1.5950165,1.7929382,5.9795227,0.12339783,-0.015960693,-0.105911255,12.979126,-19.822693,-48.768616,0.701913093,0.95415431,9.389814592,0.060700738,-0.022908305,-0.211239727,13.66625714,-19.5263031,-48.62751098
8.06E+12,1.5638275,1.7632599,6.0129547,0.05505371,-0.031280518,-0.14219666,12.979126,-19.822693,-48.768616,0.791223434,1.038032699,9.048785402,0.066970447,-0.022213544,-0.20070688,13.59754402,-19.55594209,-48.64162149
8.06E+12,1.5038757,1.6903992,6.156357,-0.028747559,-0.039352417,-0.18519592,12.979126,-19.822693,-48.768616,0.86848384,1.110555419,8.745202332,0.065778773,-0.023120242,-0.194855858,13.53570222,-19.58261718,-48.65432094
8.06E+12,1.4383545,1.6046143,6.3023224,-0.11192322,-0.038497925,-0.22917175,13.708496,-19.822693,-48.53058,0.932023026,1.168539797,8.486317799,0.05632614,-0.024743459,-0.193889864,13.4800446,-19.60662476,-48.66575044
8.06E+12,1.3685455,1.5301514,6.554886,-0.1893158,-0.033477783,-0.26919556,13.708496,-19.822693,-48.53058,0.982656174,1.212147248,8.267918259,0.039501204,-0.026118906,-0.197418052,13.50288974,-19.62823158,-48.6522334
8.06E+12,1.3463135,1.4746246,6.924408,-0.25686646,-0.023223877,-0.3026123,13.708496,-19.822693,-48.53058,1.021245106,1.243947663,8.096615033,0.016619504,-0.026854793,-0.204595803,13.52345036,-19.64767773,-48.64006806
8.06E+12,1.3303375,1.3591461,7.168915,-0.3156891,-0.009307861,-0.33247375,13.708496,-19.822693,-48.53058,1.053751946,1.267015357,7.97939433,-0.010729093,-0.026491702,-0.214397453,13.54195493,-19.66517925,-48.62911925
8.06E+12,1.2264862,1.1708374,7.5586243,-0.35580444,0.008728027,-0.35728455,14.009094,-20.069885,-48.43445,1.081410501,1.276228431,7.898346397,-0.041225093,-0.024773318,-0.226205083,13.55860903,-19.68093063,-48.61926533
8.06E+12,1.059433,1.0589294,7.8328094,-0.38752747,0.034851074,-0.38104248,14.009094,-20.069885,-48.43445,1.095918071,1.265689328,7.864374187,-0.072683028,-0.021423183,-0.239313029,13.60365753,-19.71982607,-48.6007838
8.06E+12,0.8783722,0.99583435,7.9982147,-0.40107727,0.07077026,-0.39764404,14.009094,-20.069885,-48.43445,1.092269564,1.245013335,7.861217708,-0.104167472,-0.015795758,-0.253485974,13.64420118,-19.75483196,-48.58415042
8.06E+12,0.77212524,1.04216,8.145157,-0.40534973,0.11242676,-0.40519714,14.009094,-20.166016,-48.43445,1.070879828,1.220095437,7.874917408,-0.133858452,-0.007139156,-0.267901781,13.68069046,-19.78633726,-48.56918037
8.06E+12,0.62734985,1.0358124,8.327652,-0.40498352,0.15713501,-0.40826416,14.009094,-20.166016,-48.43445,1.041004369,1.202301893,7.901941367,-0.16100758,0.004817436,-0.281631317,13.71353081,-19.82430514,-48.55570734
8.06E+12,0.5729065,0.9745941,8.535919,-0.3957367,0.2036438,-0.40698242,14.009094,-20.166016,-48.43445,0.999638917,1.185652944,7.94451243,-0.185405174,0.020049193,-0.294294601,13.74308713,-19.85847622,-48.5435816
8.06E+12,0.50027466,0.8991699,8.605667,-0.37922668,0.2421112,-0.40286255,14.009094,-20.166016,-48.43445,0.956965675,1.164547059,8.003653087,-0.206438326,0.038408654,-0.305563383,13.76968782,-19.8892302,-48.53266844
8.06E+12,0.46368408,0.8964081,8.601929,-0.33685303,0.2774048,-0.39323425,14.009094,-19.631958,-48.693848,0.911296574,1.138009343,8.063854478,-0.223717162,0.058778909,-0.3152933,13.79362844,-19.91690878,-48.5228466
8.06E+12,0.46759033,0.8945923,8.363403,-0.2848816,0.29988098,-0.3821411,14.009094,-19.631958,-48.693848,0.866535324,1.113849219,8.117661931,-0.235030749,0.080641498,-0.323087395,13.81517499,-19.8884137,-48.53994674
8.06E+12,0.5241394,0.9241638,8.238586,-0.22032166,0.30950928,-0.37028503,14.009094,-19.631958,-48.693848,0.826640825,1.091923527,8.142236038,-0.240015834,0.102565446,-0.328992765,13.83456689,-19.86276813,-48.55533686
8.06E+12,0.614563,1.0214233,7.9520874,-0.14234924,0.30296326,-0.35920715,14.009094,-19.631958,-48.693848,0.796390682,1.075147554,8.151871034,-0.238046416,0.123259829,-0.333121992,13.85201961,-19.83968712,-48.56918798
8.06E+12,0.7277527,1.1065216,7.619385,-0.055862427,0.27790833,-0.34753418,15.493774,-18.804932,-48.373413,0.778207914,1.069775129,8.13189267,-0.228476699,0.141230172,-0.335730508,13.86772704,-19.81891421,-48.58165398
8.06E+12,0.7821045,1.1899872,7.1947327,0.033096313,0.23649597,-0.33836365,15.493774,-18.804932,-48.373413,0.773162393,1.073449776,8.080641903,-0.211215272,0.154897988,-0.336910875,14.03033174,-19.71751599,-48.56082988
8.06E+12,0.7717438,1.2762146,6.693985,0.13311768,0.17185974,-0.33595276,15.493774,-18.804932,-48.373413,0.774056603,1.085103518,7.992050983,-0.186784113,0.163057786,-0.337056152,14.17667597,-19.62625759,-48.54208819
8.06E+12,0.7084503,1.302597,6.1822205,0.2210083,0.09976196,-0.33979797,15.493774,-18.804932,-48.373413,0.773825323,1.104214627,7.862244385,-0.154793934,0.163937982,-0.336945813,14.30838577,-19.54412503,-48.52522067
8.06E+12,0.5632477,1.2818298,5.781067,0.28707886,0.029953003,-0.35040283,15.896606,-18.621826,-48.2666,0.767287821,1.124052864,7.694241996,-0.11721371,0.15752038,-0.337231029,14.42692459,-19.47020573,-48.51003991
8.06E+12,0.45443726,1.2711029,5.59198,0.32374573,-0.028381348,-0.3605652,15.896606,-18.621826,-48.2666,0.746883809,1.139830558,7.502924497,-0.076784453,0.144763642,-0.338548209,14.57389273,-19.38536775,-48.48569592
8.06E+12,0.3933258,1.2349854,5.555664,0.32992554,-0.06652832,-0.3687744,15.896606,-18.621826,-48.2666,0.717639154,1.152957792,7.311830047,-0.036731435,0.127449143,-0.340749908,14.70616406,-19.30901358,-48.46378632
8.06E+12,0.33032227,1.2341461,5.7233276,0.3120575,-0.08407593,-0.37094116,15.896606,-18.621826,-48.2666,0.685207818,1.161160553,7.136213442,-6.57E-05,0.108051397,-0.343552357,14.82520825,-19.24029482,-48.44406769
8.06E+12,0.22528076,1.2094574,5.9013977,0.27534485,-0.079452515,-0.37051392,15.603638,-18.914795,-48.2666,0.649719264,1.168459107,6.994924858,0.031146586,0.088838664,-0.346291238,14.93234803,-19.17844794,-48.42632092
8.06E+12,0.10066223,1.1874695,5.9996643,0.2361908,-0.054275513,-0.36805725,15.603638,-18.914795,-48.2666,0.607275413,1.172558937,6.885572142,0.055566413,0.072009546,-0.348713506,14.99947703,-19.15208264,-48.41034883
8.06E+12,-0.009307861,1.2107544,6.082962,0.20335388,-0.016342163,-0.3627472,15.603638,-18.914795,-48.2666,0.556614095,1.174049993,6.796981358,0.073628851,0.05938104,-0.35064788,15.05989312,-19.12835388,-48.39597395
8.06E+12,-0.064834595,1.2254944,6.2248383,0.18205261,0.021026611,-0.3547058,15.603638,-18.914795,-48.2666,0.500021899,1.177720434,6.725579422,0.086601354,0.05180872,-0.351857812,15.11426761,-19.10699799,-48.38303655
8.06E+12,-0.0980072,1.1976471,6.3384247,0.173172,0.05091858,-0.34420776,15.553284,-18.08319,-47.68982,0.44353625,1.18249783,6.67550531,0.09614648,0.048730509,-0.352142611,15.16320465,-19.08777769,-48.3713929
8.06E+12,-0.17562866,1.2159424,6.494568,0.17601013,0.07661438,-0.33171082,15.553284,-18.08319,-47.68982,0.389381905,1.184012757,6.641797249,0.103849032,0.048949316,-0.351349126,15.20221258,-18.98731892,-48.30323561
8.06E+12,-0.24137878,1.2565613,6.729706,0.18963623,0.10154724,-0.31755066,15.553284,-18.08319,-47.68982,0.332880848,1.187205722,6.627074324,0.111065142,0.051715822,-0.349385295,15.23731973,-18.89690603,-48.24189405
8.06E+12,-0.30917358,1.2273407,6.9869843,0.20840454,0.12495422,-0.30155945,15.553284,-18.08319,-47.68982,0.275454886,1.194141279,6.637337492,0.11892225,0.056698964,-0.346201832,15.26891615,-18.81553443,-48.18668664
8.06E+12,-0.33206177,1.1649475,7.1264496,0.23161316,0.14785767,-0.28225708,15.553284,-17.93518,-47.595215,0.216992039,1.197461221,6.672302173,0.127870479,0.06352449,-0.341737594,15.29735294,-18.74229999,-48.13699998
8.06E+12,-0.3488617,1.1340332,7.0953674,0.26187134,0.1714325,-0.25958252,15.553284,-17.93518,-47.595215,0.162086658,1.194209849,6.717716915,0.138244747,0.071957808,-0.335789542,15.32294604,-18.66158799,-48.08282148
8.06E+12,-0.36238098,1.182251,7.0700226,0.29832458,0.19119263,-0.23246765,15.553284,-17.93518,-47.595215,0.110991822,1.188192184,6.755481964,0.150607407,0.081905277,-0.32816884,15.34597984,-18.58894719,-48.03406083
8.06E+12,-0.2944336,1.286499,7.0125732,0.34327698,0.19894409,-0.19950867,15.553284,-17.93518,-47.595215,0.063654542,1.187598066,6.786936027,0.165379124,0.092834012,-0.318598721,15.36671026,-18.52357047,-47.99017625
8.06E+12,-0.21438599,1.3224182,6.925995,0.3921051,0.18959045,-0.16493225,15.867615,-18.881226,-48.825073,0.027845728,1.197488159,6.809499745,0.18316891,0.10344502,-0.306689716,15.38536763,-18.46473142,-47.95068012
8.06E+12,-0.21151733,1.3248596,6.77861,0.44091797,0.17019653,-0.13182068,15.867615,-18.881226,-48.825073,0.003622556,1.209981163,6.82114927,0.204062529,0.112059563,-0.292513969,15.43359237,-18.50638088,-48.03811941
8.06E+12,-0.21351624,1.3964844,6.5869904,0.48324585,0.14445496,-0.10050964,15.867615,-18.881226,-48.825073,-0.017891433,1.221469007,6.816895343,0.227748073,0.11787326,-0.27644464,15.47699463,-18.54386539,-48.11681477
8.06E+12,-0.10990906,1.4902802,6.447983,0.51708984,0.11628723,-0.07066345,15.867615,-18.881226,-48.825073,-0.037453913,1.238970546,6.793904849,0.253297851,0.12053143,-0.25885114,15.51605667,-18.57760145,-48.18764059
8.06E+12,0.021148682,1.6726532,6.5219727,0.5394287,0.087905884,-0.042007446,15.896606,-18.649292,-46.458435,-0.044699428,1.264101512,6.759312664,0.279677049,0.12010701,-0.240032371,15.5512125,-18.60796391,-48.25138383
8.06E+12,0.13685608,1.8538666,6.5274353,0.55104065,0.057052612,-0.013626099,15.896606,-18.649292,-46.458435,-0.038114617,1.304956681,6.735578668,0.305652215,0.116886897,-0.220229879,15.58575185,-18.61209672,-48.07208895
8.06E+12,0.2710266,2.0585632,6.6090546,0.55274963,0.028747559,0.007873535,15.896606,-18.649292,-46.458435,-0.020617547,1.359847672,6.714764331,0.330191058,0.110903469,-0.199569501,15.61683727,-18.61581625,-47.91072356
8.06E+12,0.3751526,2.1474915,6.6917267,0.5464783,0.007644653,0.018615723,15.896606,-18.649292,-46.458435,0.008546867,1.429719225,6.704193358,0.352446915,0.102687878,-0.178825197,15.64481414,-18.61916382,-47.7654947
8.06E+12,0.4827118,2.221405,7.044632,0.5277405,-0.003753662,0.0209198,15.896606,-18.621826,-46.255493,0.045207441,1.501496453,6.702946692,0.371850054,0.093183555,-0.159081105,15.66999333,-18.62217664,-47.63478873
8.06E+12,0.52742004,2.3084106,7.3995056,0.49479675,-0.002243042,0.014465332,15.896606,-18.621826,-46.255493,0.088957877,1.573487307,6.737115223,0.387439098,0.083489834,-0.141081015,15.69265459,-18.62214157,-47.49685916
8.06E+12,0.5950928,2.3030548,7.7323,0.45202637,0.015258789,0.005477905,15.896606,-18.621826,-46.255493,0.132804093,1.646979637,6.80335426,0.398174864,0.074916546,-0.12552638,15.71304973,-18.62211002,-47.37272254
8.06E+12,0.5066681,2.3128662,8.050262,0.40133667,0.048095703,-0.004928589,15.896606,-18.621826,-46.255493,0.179032964,1.712587153,6.896248834,0.403560014,0.06895077,-0.112425951,15.73140536,-18.62208162,-47.26099959
8.06E+12,0.35058594,2.3694458,8.416443,0.3539276,0.08929443,-0.01789856,16.914368,-19.981384,-50.23346,0.211796477,1.772615058,7.011650151,0.40333768,0.066865264,-0.101676215,15.74792542,-18.62205605,-47.16044893
8.06E+12,0.12394714,2.3419495,8.834946,0.30581665,0.13926697,-0.027893066,16.914368,-19.981384,-50.23346,0.225675424,1.832298132,7.152129436,0.398396672,0.06910818,-0.09329845,15.86456968,-18.75798885,-47.46775004
8.06E+12,-0.13023376,2.3396454,9.227432,0.25901794,0.1925354,-0.03555298,16.914368,-19.981384,-50.23346,0.215502595,1.883263269,7.320411092,0.38913867,0.076124059,-0.086757911,15.96954951,-18.88032836,-47.74432103
8.06E+12,-0.20698547,2.2448425,9.608917,0.25901794,0.1925354,-0.03555298,16.914368,-19.981384,-50.23346,0.18092896,1.928901482,7.511113183,0.376126597,0.087765193,-0.081637418,16.06403136,-18.99043393,-47.99323493
8.06E+12,-0.3821411,2.1122284,9.974289,0.18312073,0.29148865,-0.028289795,16.075134,-19.483948,-47.781372,0.142137517,1.960495584,7.720893565,0.364415731,0.098242214,-0.077028974,16.14906503,-19.08952893,-48.21725744
8.06E+12,-0.5396576,1.9894714,10.193192,0.15408325,0.3368683,-0.013702393,16.075134,-19.483948,-47.781372,0.089709655,1.975668865,7.946233108,0.346286231,0.117566858,-0.072155056,16.14167192,-19.12897084,-48.17366889
8.06E+12,-0.6281738,1.9180298,10.571503,0.13522339,0.36886597,0.010360718,16.075134,-19.483948,-47.781372,0.02677293,1.977049119,8.170928997,0.327065933,0.139497002,-0.06630979,16.13501813,-19.16446856,-48.1344392
8.06E+12,-0.65771484,2.0454865,10.898239,0.12748718,0.37773132,0.043701172,16.075134,-19.483948,-47.781372,-0.038721743,1.971147187,8.410986398,0.307881679,0.162433899,-0.058642739,16.12902972,-19.1964165,-48.09913248
8.06E+12,-0.51626587,2.1220703,11.127136,0.13742065,0.358963,0.081222534,16.075134,-19.483948,-47.781372,-0.100621053,1.978581118,8.659711658,0.289842229,0.183963641,-0.048408348,16.12364015,-19.22516965,-48.06735643
8.06E+12,-0.40881348,2.1974487,11.415787,0.16304016,0.30828857,0.12020874,16.075134,-19.483948,-47.781372,-0.142185535,1.992930036,8.906454092,0.274600071,0.201463577,-0.03544526,16.11878953,-19.25104749,-48.03875799
8.06E+12,-0.32347107,2.2518005,11.737305,0.19676208,0.23797607,0.15090942,16.075134,-19.483948,-47.781372,-0.168848329,2.013381903,9.157387383,0.26344408,0.212146076,-0.01987986,16.11442398,-19.27433754,-48.01301939
8.06E+12,-0.16003418,2.3201141,11.978165,0.23861694,0.14170837,0.18185425,16.099548,-19.52362,-47.76764,-0.184310603,2.037223762,9.415379145,0.25677588,0.214729075,-0.002800932,16.11049498,-19.29529858,-47.98985465
8.06E+12,0.023544312,2.3704987,12.363388,0.27096558,0.05078125,0.20397949,16.099548,-19.52362,-47.76764,-0.181882961,2.065512796,9.67165773,0.254959986,0.207427005,0.015664586,16.10940028,-19.31813073,-47.96763319
8.06E+12,0.18632507,2.484558,12.725143,0.29170227,-0.026855469,0.22229004,16.099548,-19.52362,-47.76764,-0.161340234,2.096011387,9.940830757,0.256560545,0.191762429,0.034496077,16.10841505,-19.33867965,-47.94763387
8.06E+12,0.2441101,2.573471,13.100739,0.29989624,-0.08708191,0.23468018,16.099548,-19.52362,-47.76764,-0.126573703,2.134866048,10.21926198,0.260074718,0.16990064,0.053275473,16.10752835,-19.35717369,-47.92963448
8.06E+12,0.16622925,2.5622253,13.455551,0.29914856,-0.13208008,0.23942566,16.905212,-20.703125,-47.8714,-0.089505323,2.178726543,10.50740968,0.26405687,0.144202385,0.071415944,16.10673031,-19.37381832,-47.91343503
8.06E+12,0.029663086,2.4618988,13.926773,0.29356384,-0.16651917,0.23701477,16.905212,-20.703125,-47.8714,-0.063931866,2.217076419,10.80222381,0.267566039,0.116574138,0.088216915,16.18657848,-19.50674899,-47.90923153
8.06E+12,-0.024002075,2.346817,14.434708,0.28701782,-0.19198608,0.23582458,16.905212,-20.703125,-47.8714,-0.054572371,2.241558657,11.11467873,0.270165819,0.088264807,0.103096701,16.25844183,-19.62638659,-47.90544838
8.06E+12,0.044937134,2.2420502,14.850937,0.2831726,-0.1974945,0.24241638,16.905212,-20.703125,-47.8714,-0.051515341,2.252084491,11.44668166,0.271851019,0.060239719,0.116369489,16.32311885,-19.73406043,-47.90204354
8.06E+12,0.16168213,2.2161255,15.232025,0.28251648,-0.17481995,0.2570343,16.583252,-21.025085,-46.925354,-0.041870093,2.251081062,11.78710719,0.272983177,0.034466297,0.128974178,16.38132817,-19.83096689,-47.89897919
8.06E+12,0.23498535,2.2029572,15.523285,0.28160095,-0.11891174,0.27694702,16.583252,-21.025085,-46.925354,-0.021514871,2.247585506,12.13159897,0.273936507,0.013537672,0.14178019,16.40152055,-19.9503787,-47.80161667
8.06E+12,0.28837585,2.1979675,15.584335,0.28038025,-0.030761719,0.29632568,16.583252,-21.025085,-46.925354,0.004135151,2.243122675,12.47076758,0.274702952,0.000292731,0.155296873,16.41969369,-20.05784933,-47.7139904
8.06E+12,0.31913757,2.230072,15.383347,0.28129578,0.08943176,0.31271362,16.583252,-21.025085,-46.925354,0.032559221,2.238607158,12.78212432,0.275270682,-0.002812714,0.169399754,16.43604952,-20.1545729,-47.63512676
8.06E+12,0.35131836,2.3168945,15.074524,0.28411865,0.24006653,0.32867432,16.564941,-21.118164,-46.798706,0.061217056,2.237753642,13.04224659,0.275873191,0.006411733,0.18373114,16.45076977,-20.24162411,-47.56414948
8.06E+12,0.4801178,2.4151306,14.627945,0.2879486,0.3889618,0.34228516,16.564941,-21.118164,-46.798706,0.090227186,2.245667728,13.24547433,0.276697737,0.029777213,0.198225458,16.4621869,-20.3292781,-47.48760514
8.06E+12,0.633255,2.475647,14.004715,0.29115295,0.5274811,0.35316467,16.564941,-21.118164,-46.798706,0.129216248,2.262614015,13.3837214,0.277822824,0.065695672,0.212631428,16.47246231,-20.40816669,-47.41871522
8.06E+12,0.7092285,2.5268707,13.249985,0.29455566,0.6462555,0.35873413,16.564941,-21.118164,-46.798706,0.179620123,2.283917314,13.44582076,0.279155836,0.111874214,0.226684753,16.48171018,-20.47916642,-47.3567143
8.06E+12,0.73550415,2.6030426,12.409454,0.29580688,0.7346344,0.35614014,16.30249,-22.036743,-45.81604,0.232580961,2.308212652,13.42623718,0.280695819,0.165312343,0.23988969,16.49003326,-20.54306618,-47.30091347
8.06E+12,0.7465515,2.7273407,11.577911,0.2884674,0.7955017,0.34701538,16.30249,-22.036743,-45.81604,0.282873279,2.337695647,13.32455886,0.282206925,0.222244549,0.251514735,16.47127893,-20.69243386,-47.15242612
8.06E+12,0.80218506,2.8598022,10.89917,0.26649475,0.82099915,0.3330078,16.30249,-22.036743,-45.81604,0.329241102,2.376660152,13.14989408,0.282832972,0.279570264,0.2610648,16.45440004,-20.82686477,-47.01878751
8.06E+12,0.8529968,3.0390778,10.404327,0.22990417,0.8070984,0.3148346,16.30249,-22.036743,-45.81604,0.376535497,2.424974357,12.92482167,0.28119915,0.333713152,0.2682591,16.43920903,-20.94785259,-46.89851276
8.06E+12,0.8726654,3.2007294,10.07579,0.18115234,0.7564392,0.28570557,15.553284,-23.085022,-46.255493,0.424181628,2.486384701,12.6727722,0.276069652,0.381051677,0.27291665,16.42553713,-21.05674164,-46.79026548
8.06E+12,0.8067169,3.2804565,9.869049,0.122665405,0.6737366,0.24049377,15.553284,-23.085022,-46.255493,0.469030005,2.557819171,12.41307398,0.266577921,0.41859043,0.274195542,16.33831182,-21.25956967,-46.73678824
8.06E+12,0.7281952,3.223465,9.812027,0.058120728,0.57366943,0.18702698,15.553284,-23.085022,-46.255493,0.502798694,2.630082904,12.15867148,0.252186669,0.444105047,0.270825365,16.25980904,-21.4421149,-46.68865871
8.06E+12,0.6248779,3.105774,9.8558655,-0.018508911,0.44891357,0.12362671,15.553284,-23.085022,-46.255493,0.525338345,2.689421114,11.92400704,0.232780075,0.457061485,0.262445526,16.18915653,-21.60640561,-46.64534214
8.06E+12,0.44361877,2.9310913,10.173187,-0.09939575,0.3179779,0.056900024,15.855408,-22.903442,-46.195984,0.5352923,2.731056402,11.71719288,0.207651176,0.456246693,0.248563645,16.12556928,-21.75426725,-46.60635723
8.06E+12,0.29273987,2.7152405,10.764084,-0.18457031,0.19302368,-0.007217407,15.855408,-22.903442,-46.195984,0.526124947,2.751059892,11.56279229,0.176946484,0.442419814,0.229397283,16.09855315,-21.86918473,-46.5653199
8.06E+12,0.20674133,2.5185394,11.5589905,-0.2781067,0.08786011,-0.06628418,15.855408,-22.903442,-46.195984,0.50278644,2.747477953,11.48292146,0.140794804,0.417480201,0.205735814,16.07423864,-21.97261045,-46.52838631
8.06E+12,0.06628418,2.269928,12.393127,-0.3746643,0.014755249,-0.11677551,15.855408,-22.903442,-46.195984,0.473181929,2.724584098,11.49052837,0.098904654,0.384518192,0.178533814,16.05235557,-22.06569361,-46.49514608
8.06E+12,-0.2467041,1.9819794,13.09375,-0.4593506,-0.022262573,-0.1613617,17.471313,-22.325134,-45.854187,0.432492154,2.679118488,11.58078823,0.051547759,0.347541897,0.149002882,16.03266082,-22.14946845,-46.46522987
8.06E+12,-0.6835327,1.7196198,13.707321,-0.54019165,-0.033309937,-0.20703125,17.471313,-22.325134,-45.854187,0.364572528,2.609404579,11.73208441,0.000457923,0.31056145,0.117966424,16.17652603,-22.167035,-46.40412559
8.06E+12,-1.1164856,1.3509064,14.393417,-0.6005249,-0.02017212,-0.24221802,17.471313,-22.325134,-45.854187,0.259762006,2.520426101,11.92960807,-0.053607035,0.276174312,0.085466656,16.30600473,-22.1828449,-46.34913173
8.06E+12,-1.5182953,1.0512085,14.943237,-0.63635254,0.004226685,-0.26506042,17.471313,-22.325134,-45.854187,0.122137245,2.403474131,12.17598896,-0.108298821,0.246539668,0.052698189,16.42253556,-22.19707381,-46.29963726
8.06E+12,-1.8642578,0.57676697,15.385178,-0.64959717,0.04182434,-0.2693634,18.299866,-23.428345,-45.585632,-0.041906009,2.268247568,12.45271376,-0.161104193,0.22230837,0.020922328,16.5274133,-22.20987983,-46.25509223
8.06E+12,-2.1895294,0.24316406,15.450699,-0.6351929,0.0967865,-0.2546997,18.299866,-23.428345,-45.585632,-0.224141189,2.099099508,12.74596019,-0.209953491,0.204259967,-0.008106245,16.70465857,-22.33172635,-46.18814621
8.06E+12,-2.4328766,0.009948731,15.172806,-0.60198975,0.164505,-0.22349548,18.299866,-23.428345,-45.585632,-0.42068001,1.913505963,13.01643407,-0.252477432,0.19351262,-0.032765591,16.86417931,-22.44138821,-46.12789479
8.06E+12,-2.5327911,-0.0499115,14.727493,-0.54797363,0.25100708,-0.16960144,18.38379,-22.833252,-45.50171,-0.621899669,1.72315024,13.23207126,-0.287428663,0.190611858,-0.051838579,17.00774798,-22.54008389,-46.07366851
8.06E+12,-2.4565735,-2.29E-04,14.137329,-0.48242188,0.3266449,-0.10328674,18.38379,-22.833252,-45.50171,-0.812988812,1.545844066,13.38161344,-0.31348316,0.19665138,-0.063614866,17.14535218,-22.5694007,-46.01647266
8.06E+12,-2.4464417,0.03627014,13.5278015,-0.40567017,0.3738098,-0.033493042,18.38379,-22.833252,-45.50171,-0.977347281,1.391236771,13.45718499,-0.330377032,0.209650732,-0.067582053,17.26919597,-22.59578583,-45.96499639
8.06E+12,-2.3168488,0.10151672,12.730484,-0.3131256,0.37971497,0.032836914,18.38379,-22.833252,-45.50171,-1.124256723,1.255740108,13.46424664,-0.337906346,0.226066639,-0.064173152,17.38065537,-22.61953245,-45.91866775
8.06E+12,-2.1134796,0.09132385,11.928329,-0.20674133,0.34843445,0.09399414,18.50586,-20.79773,-45.736694,-1.24351593,1.140317769,13.39087038,-0.335428271,0.241431472,-0.054472145,17.48096883,-22.6409044,-45.87697198
8.06E+12,-1.8556976,0.2532196,11.067337,-0.10610962,0.29562378,0.14653015,18.50586,-20.79773,-45.736694,-1.330512297,1.035418377,13.24461624,-0.322559577,0.25213177,-0.039625517,17.58345795,-22.45658696,-45.86294418
8.06E+12,-1.6065216,0.48875427,10.383545,-0.004776001,0.21287537,0.19470215,18.50586,-20.79773,-45.736694,-1.383030828,0.9571985,13.02688832,-0.300914581,0.256480971,-0.02100995,17.67569815,-22.29070127,-45.85031916
8.06E+12,-1.2577057,0.72566223,9.682297,0.07521057,0.11639404,0.22718811,18.50586,-20.79773,-45.736694,-1.405379905,0.910354077,12.76255399,-0.271300723,0.252120411,0.00056126,17.75871434,-22.14140414,-45.83895665
8.06E+12,-0.92607117,0.8943176,9.066269,0.14349365,0.009017944,0.24549866,18.128967,-20.166016,-47.0932,-1.390612484,0.891884892,12.45452829,-0.236649594,0.238547774,0.023223945,17.83342891,-22.00703673,-45.82873038
8.06E+12,-0.88578796,0.99279785,8.579025,0.19773865,-0.10379028,0.24516296,18.128967,-20.166016,-47.0932,-1.344158353,0.892128163,12.11570236,-0.19863527,0.215594791,0.045451416,17.86298271,-21.82293465,-45.95517734
8.06E+12,-1.0155945,1.0437775,8.193527,0.23600769,-0.21800232,0.22457886,18.128967,-20.166016,-47.0932,-1.298321314,0.902195132,11.76203462,-0.158997878,0.183656284,0.065422571,17.88958114,-21.65724279,-46.06897961
8.06E+12,-1.3405457,1.0354614,7.788788,0.26089478,-0.32766724,0.19644165,18.128967,-20.166016,-47.0932,-1.270048632,0.916353368,11.40518386,-0.119497321,0.143490423,0.0813382,17.91351973,-21.50812011,-46.17140165
8.06E+12,-1.7211151,0.8362274,7.359436,0.27497864,-0.4351654,0.16496277,18.128967,-19.839478,-46.56067,-1.277098339,0.928264172,11.04354427,-0.081458111,0.096374657,0.092848545,17.93506446,-21.3739097,-46.26358148
8.06E+12,-1.8181458,0.6520691,6.7977753,0.2720642,-0.5150757,0.14524841,18.128967,-19.839478,-46.56067,-1.321500015,0.919060494,10.67513345,-0.045814436,0.043220651,0.100059967,17.95445471,-21.22046653,-46.29329033
8.06E+12,-1.649704,0.60498047,6.532196,0.2454834,-0.5648804,0.14234924,18.128967,-19.839478,-46.56067,-1.371164594,0.892361355,10.28739763,-0.014026572,-0.012608984,0.104578812,17.97190594,-21.08236768,-46.3200283
8.06E+12,-1.4893036,0.5784149,6.564987,0.18626404,-0.5839081,0.15080261,18.128967,-19.839478,-46.56067,-1.399018534,0.863623266,9.911877469,0.011924425,-0.067836125,0.108355854,17.98761205,-20.95807871,-46.34409247
8.06E+12,-1.4064178,0.5782623,6.7786713,0.100234985,-0.5794983,0.15914917,18.47229,-19.711304,-45.86487,-1.408047041,0.83510243,9.577188422,0.029358387,-0.119443323,0.11260053,18.00174754,-20.84621864,-46.36575022
8.06E+12,-1.3098907,0.5339813,7.073059,-0.002807617,-0.5487976,0.16435242,18.47229,-19.711304,-45.86487,-1.407884117,0.809418417,9.29733671,0.036446046,-0.165448821,0.117255394,18.04880179,-20.73272717,-46.3156622
8.06E+12,-1.2042084,0.45700073,7.1989136,-0.11222839,-0.48916626,0.1687622,18.47229,-19.711304,-45.86487,-1.398084775,0.781874705,9.074908939,0.03252068,-0.203783699,0.121965097,18.09115061,-20.63058486,-46.27058298
8.06E+12,-1.0693207,0.391037,7.288147,-0.2053833,-0.41481018,0.17370605,18.47229,-19.711304,-45.86487,-1.378697138,0.749387308,8.887309405,0.018045773,-0.232321955,0.126644807,18.12926455,-20.53865677,-46.23001168
8.06E+12,-0.9448395,0.38409424,7.3704376,-0.28326416,-0.33488464,0.17648315,19.158936,-20.852661,-46.757507,-1.347759494,0.713552277,8.727393164,-0.004297134,-0.250570777,0.131350931,18.16356709,-20.45592149,-46.19349751
8.06E+12,-0.89463806,0.44206238,7.5071716,-0.34432983,-0.26339722,0.17250061,19.158936,-20.852661,-46.757507,-1.307467494,0.680606473,8.591697608,-0.032193837,-0.259002163,0.135864153,18.26310398,-20.49559544,-46.24989846
8.06E+12,-0.82910156,0.446167,7.755905,-0.385437,-0.21234131,0.16081238,19.158936,-20.852661,-46.757507,-1.266184551,0.656752064,8.483245007,-0.063407436,-0.259441669,0.139527799,18.35268718,-20.531302,-46.30065932
8.06E+12,-0.8075714,0.2965393,7.830658,-0.4028015,-0.17938232,0.14376831,19.158936,-20.852661,-46.757507,-1.222476252,0.635693557,8.410511006,-0.095610393,-0.254731633,0.141656257,18.43331207,-20.5634379,-46.34634409
8.06E+12,-0.8923645,0.119262695,7.694275,-0.39027405,-0.15766907,0.12452698,18.492126,-21.51947,-46.366882,-1.180985767,0.601778132,8.352525706,-0.126329503,-0.247196702,0.141867462,18.50587446,-20.59236021,-46.38746038
8.06E+12,-1.039917,0.021820068,7.466797,-0.35424805,-0.13508606,0.1118927,18.492126,-21.51947,-46.366882,-1.15212364,0.553526588,8.286700635,-0.152723958,-0.238243939,0.140133414,18.50449961,-20.68507119,-46.38540254
8.06E+12,-1.1770935,-0.006668091,7.2879944,-0.30789185,-0.109313965,0.10864258,18.492126,-21.51947,-46.366882,-1.140902976,0.500355936,8.204710272,-0.172876367,-0.227928151,0.137309343,18.50326225,-20.76851107,-46.38355049
8.06E+12,-1.1873627,0.017471313,7.1574554,-0.25912476,-0.08735657,0.11433411,18.492126,-21.51947,-46.366882,-1.144522028,0.449653533,8.113038685,-0.186377915,-0.216066732,0.134442666,18.50214863,-20.84360696,-46.38188364
8.06E+12,-1.1709747,0.09164429,6.840317,-0.20689392,-0.07136536,0.12809753,17.718506,-21.740723,-45.481873,-1.148806096,0.406435311,8.017480356,-0.1936526,-0.203195716,0.132431811,18.50114636,-20.91119327,-46.38038347
8.06E+12,-1.0628204,0.1867218,6.3727417,-0.14178467,-0.06010437,0.15037537,17.718506,-21.740723,-45.481873,-1.151022956,0.374956209,7.89976402,-0.194976732,-0.19001268,0.131998383,18.42288233,-20.99414624,-46.29053243
8.06E+12,-0.907959,0.28186035,5.901169,-0.06956482,-0.06210327,0.1765747,17.718506,-21.740723,-45.481873,-1.1422027,0.356132768,7.747061788,-0.189657526,-0.177021849,0.133836081,18.3524447,-21.06880392,-46.20966648
8.06E+12,-0.70339966,0.35650635,5.5874023,-0.001373291,-0.07434082,0.20202637,17.718506,-21.740723,-45.481873,-1.11877833,0.348705526,7.56247251,-0.177648255,-0.165529991,0.138109943,18.28905083,-21.13599582,-46.13688713
8.06E+12,-0.5760956,0.47669983,5.2868958,0.057876587,-0.08773804,0.2238617,18.128967,-20.509338,-45.082092,-1.077240463,0.349485609,7.364965489,-0.160020759,-0.156411074,0.144501586,18.23199634,-21.19646854,-46.07138572
8.06E+12,-0.49635315,0.5385742,4.891388,0.10444641,-0.09310913,0.23776245,18.128967,-20.509338,-45.082092,-1.027125977,0.362207031,7.15715852,-0.138231024,-0.149543771,0.152437597,18.22169341,-21.12775549,-45.97245635
8.06E+12,-0.31254578,0.6773224,4.481186,0.13323975,-0.08303833,0.24743652,18.128967,-20.509338,-45.082092,-0.974048694,0.379843748,6.930581468,-0.113963281,-0.143900307,0.160970083,18.21242077,-21.06591374,-45.88341991
8.06E+12,-0.07434082,0.8686371,4.1424103,0.14923096,-0.055648804,0.25680542,18.128967,-20.509338,-45.082092,-0.907898403,0.409591613,6.685641921,-0.089242978,-0.137814109,0.169616726,18.20407539,-21.01025617,-45.80328712
8.06E+12,-0.11581421,0.9630432,3.7897797,0.14552307,-0.017333984,0.25912476,17.185974,-19.725037,-46.00067,-0.824542645,0.455496162,6.431318759,-0.065395584,-0.129597579,0.178335596,18.19656455,-20.96016435,-45.73116761
8.06E+12,-0.2637329,0.9971161,3.3305206,0.123565674,0.031692505,0.253479,17.185974,-19.725037,-46.00067,-0.753669801,0.506250866,6.167164853,-0.044303719,-0.118371219,0.186414512,18.0955055,-20.83665161,-45.75811785
8.06E+12,-0.17033386,1.0893097,3.1091766,0.08782959,0.08668518,0.24497986,17.185974,-19.725037,-46.00067,-0.704676111,0.555337389,5.883500428,-0.027516779,-0.103364847,0.193120961,18.00455235,-20.72549015,-45.78237306
8.06E+12,0.018356323,1.2470245,3.2034302,0.038528442,0.13845825,0.2402649,17.185974,-19.725037,-46.00067,-0.651241886,0.60873462,5.606068045,-0.015982142,-0.084359844,0.198306851,17.92269451,-20.62544484,-45.80420276
8.06E+12,0.34797668,1.4527893,3.0635834,-0.014312744,0.16726685,0.23617554,16.473389,-19.522095,-46.539307,-0.584282065,0.672563608,5.36580426,-0.010531084,-0.062078035,0.202502656,17.84902246,-20.53540405,-45.82384948
8.06E+12,0.47364807,1.6996002,3.1017761,-0.068573,0.18495178,0.22833252,16.473389,-19.522095,-46.539307,-0.491056191,0.750586177,5.135582174,-0.01090925,-0.039143546,0.205869944,17.71145912,-20.43407315,-45.89539523
8.06E+12,0.44989014,1.7277069,3.2016907,-0.113204956,0.19128418,0.20321655,16.473389,-19.522095,-46.539307,-0.394585764,0.84548758,4.932201567,-0.016675625,-0.016734014,0.208116202,17.5876521,-20.34287533,-45.95978641
8.06E+12,0.2781372,1.7178802,3.4447021,-0.15470886,0.17623901,0.16239929,16.926575,-20.33844,-45.9198,-0.310138174,0.933709512,4.75915048,-0.026328558,0.004067806,0.207626237,17.47622579,-20.2607973,-46.01773847
8.06E+12,0.10774231,1.596756,3.6008759,-0.18785095,0.14466858,0.12034607,16.926575,-20.33844,-45.9198,-0.251310637,1.01212658,4.627705642,-0.039166588,0.021284926,0.203103542,17.42126071,-20.26856157,-46.00794462
8.06E+12,-0.11552429,1.511734,3.9459991,-0.21109009,0.11260986,0.08488464,16.926575,-20.33844,-45.9198,-0.215405342,1.070589522,4.525022668,-0.054035024,0.033623292,0.194827795,17.37179214,-20.27554941,-45.99913016
8.06E+12,-0.47042847,1.43927,4.424118,-0.22488403,0.07662964,0.056777954,16.926575,-20.33844,-45.9198,-0.205417237,1.11470397,4.467120311,-0.069740531,0.041521948,0.183833479,17.32727043,-20.28183847,-45.99119714
8.06E+12,-0.771225,1.2848358,4.88002,-0.22451782,0.023773193,0.038253784,16.835022,-20.791626,-46.53778,-0.23191836,1.147160573,4.46282008,-0.085254881,0.045032718,0.171127927,17.28720089,-20.28749862,-45.98405743
8.06E+12,-0.9735565,1.1335602,5.400528,-0.21191406,-0.02609253,0.03274536,16.835022,-20.791626,-46.53778,-0.285849024,1.160928096,4.504540072,-0.099181175,0.042906765,0.157840512,17.241983,-20.33791136,-46.03942969
8.06E+12,-1.0096588,1.0335388,5.9543,-0.18791199,-0.07180786,0.041427612,16.835022,-20.791626,-46.53778,-0.354619772,1.158191306,4.594138865,-0.110454463,0.036006836,0.145330997,17.2012869,-20.38328283,-46.08926472
8.06E+12,-0.99064636,1.0205688,6.1832275,-0.15200806,-0.1085968,0.06222534,16.835022,-20.791626,-46.53778,-0.420123675,1.145726056,4.730154978,-0.118200216,0.025225366,0.134940659,17.16466041,-20.42411714,-46.13411625
8.06E+12,-0.8486786,1.0730743,6.4565887,-0.10713196,-0.13215637,0.0921936,17.033386,-20.733643,-46.458435,-0.477175943,1.13321033,4.875462231,-0.121581,0.011843149,0.127669127,17.13169657,-20.46086803,-46.17448262
8.06E+12,-0.69506836,1.1169281,6.630127,-0.056121826,-0.14613342,0.12327576,17.033386,-20.733643,-46.458435,-0.514326209,1.127196727,5.033574877,-0.120136096,-0.002556802,0.124121574,17.12186551,-20.48814553,-46.20287786
8.06E+12,-0.61735535,1.1234436,6.689743,0.005905151,-0.1568451,0.15080261,17.033386,-20.733643,-46.458435,-0.532400424,1.126169864,5.19323009,-0.113734669,-0.016914464,0.124036993,17.11301756,-20.51269527,-46.22843357
8.06E+12,-0.5583496,1.1719208,6.5920258,0.06355286,-0.1558075,0.17111206,17.033386,-20.733643,-46.458435,-0.540895916,1.125897238,5.342881381,-0.101770687,-0.030907528,0.126713554,17.1050544,-20.53479005,-46.25143372
8.06E+12,-0.40272522,1.3696289,6.2445984,0.10942078,-0.13645935,0.18714905,17.269897,-20.33844,-45.9198,-0.542641285,1.130499594,5.467795823,-0.085238333,-0.043397525,0.131153405,17.09788756,-20.55467534,-46.27213384
8.06E+12,-0.17451477,1.6456146,5.998886,0.13409424,-0.10083008,0.20132446,17.269897,-20.33844,-45.9198,-0.528649678,1.154412525,5.54547608,-0.065772421,-0.052703708,0.13675297,17.11508851,-20.53305181,-46.23690046
8.06E+12,0.07608032,1.9481354,5.9562073,0.13070679,-0.05644226,0.20832825,17.269897,-20.33844,-45.9198,-0.493236188,1.203532732,5.590817072,-0.045785755,-0.057516345,0.143210119,17.13056936,-20.51359063,-46.20519041
8.06E+12,0.34088135,2.1467133,5.98584,0.10083008,-0.015319824,0.20046997,17.269897,-20.33844,-45.9198,-0.436304537,1.277992999,5.627356095,-0.028136501,-0.057408936,0.149721932,17.14450212,-20.49607556,-46.17665137
8.06E+12,0.57366943,2.2540894,6.2050323,0.047668457,0.02178955,0.17428589,16.860962,-19.93103,-46.318054,-0.358585948,1.364865029,5.663204486,-0.015239843,-0.053200025,0.154796736,17.15704161,-20.48031201,-46.15096624
8.06E+12,0.64793396,2.31781,6.5653687,-0.013153076,0.052734375,0.13539124,16.860962,-19.93103,-46.318054,-0.26536041,1.453787466,5.717387267,-0.008949013,-0.045701068,0.156745651,17.12743365,-20.42538381,-46.16767501
8.06E+12,0.52023315,2.2936249,7.064575,-0.0770874,0.07550049,0.08468628,16.860962,-19.93103,-46.318054,-0.174030973,1.54018972,5.80218541,-0.009369419,-0.035857523,0.15461021,17.10078648,-20.37594843,-46.18271291
8.06E+12,0.30111694,2.2477264,7.642456,-0.13523865,0.08255005,0.025421143,16.860962,-19.93103,-46.318054,-0.104604561,1.615533238,5.928424369,-0.016141217,-0.024721722,0.147617817,17.07680403,-20.33145658,-46.19624702
8.06E+12,0.004638672,2.1503754,8.132355,-0.17582703,0.07194519,-0.033218384,16.061401,-21.217346,-46.691895,-0.064032411,1.678752554,6.099827532,-0.02805096,-0.013994545,0.13539815,17.05521983,-20.29141393,-46.20842772
8.06E+12,-0.3222351,1.9674988,8.494537,-0.1943512,0.043884277,-0.087905884,16.061401,-21.217346,-46.691895,-0.057165303,1.725914838,6.303080279,-0.042828567,-0.005400571,0.118536496,16.95583795,-20.38400713,-46.25677445
8.06E+12,-0.57173157,1.763382,8.868851,-0.18998718,5.19E-04,-0.1335907,16.061401,-21.217346,-46.691895,-0.083672282,1.750073235,6.522225951,-0.057980831,-0.000472086,0.097892258,16.86639425,-20.46734102,-46.3002865
8.06E+12,-0.7931824,1.6165466,9.279129,-0.17253113,-0.050872803,-0.16156006,16.061401,-21.217346,-46.691895,-0.132478211,1.751404111,6.756888456,-0.071181466,-0.000372998,0.074743962,16.78589493,-20.54234152,-46.33944735
8.06E+12,-1.0086212,1.510086,9.813293,-0.15437317,-0.106048584,-0.17524719,15.725708,-22.227478,-46.757507,-0.19854863,1.73791836,7.009112511,-0.081316432,-0.005422978,0.05111356,16.71344554,-20.60984197,-46.37469212
8.06E+12,-1.1596985,1.4402008,10.224487,-0.13798523,-0.15908813,-0.17402649,15.725708,-22.227478,-46.757507,-0.279555887,1.715135124,7.289530559,-0.088622106,-0.015485539,0.028477485,16.61467178,-20.77160557,-46.4129736
8.06E+12,-1.1584625,1.384613,10.598694,-0.1210022,-0.20315552,-0.15835571,15.725708,-22.227478,-46.757507,-0.367570148,1.687641692,7.583026204,-0.093558418,-0.029845798,0.008227088,16.5257754,-20.91719281,-46.44742694
8.06E+12,-0.9692383,1.4548492,11.019012,-0.10069275,-0.24316406,-0.12988281,15.725708,-22.227478,-46.757507,-0.446659383,1.657338822,7.884592983,-0.096302796,-0.04717677,-0.008431192,16.44576866,-21.04822133,-46.47843495
8.06E+12,-0.64390564,1.6560516,11.492462,-0.08016968,-0.27897644,-0.0952301,15.609741,-21.426392,-47.314453,-0.498917275,1.63708986,8.198034885,-0.096741792,-0.066775499,-0.020576354,16.3737626,-21.166147,-46.50634215
8.06E+12,-0.33143616,1.812149,12.142105,-0.062805176,-0.3151245,-0.06561279,15.609741,-21.426392,-47.314453,-0.513416112,1.638986034,8.527477596,-0.095084581,-0.087995593,-0.028041729,16.29736044,-21.1921715,-46.58715324
8.06E+12,-0.034622192,1.8751678,12.65654,-0.04321289,-0.34840393,-0.047714233,15.609741,-21.426392,-47.314453,-0.495218116,1.656302331,8.888940337,-0.09185664,-0.110708484,-0.031798835,16.22859849,-21.21559355,-46.65988322
8.06E+12,0.18927002,1.8073425,12.8832245,-0.025756836,-0.3637848,-0.0440979,15.609741,-21.426392,-47.314453,-0.449158524,1.678188878,9.265700303,-0.086992265,-0.134478029,-0.033390375,16.16671274,-21.23667339,-46.72534019
8.06E+12,0.26089478,1.7250977,12.878387,-0.013397217,-0.35139465,-0.05027771,15.6692505,-20.213318,-46.34857,-0.38531567,1.69110424,9.627452723,-0.080868722,-0.157408706,-0.034461127,16.11101557,-21.25564525,-46.78425147
8.06E+12,0.23069763,1.6873627,12.926331,-0.015228272,-0.3086548,-0.064453125,15.6692505,-20.213318,-46.34857,-0.320694625,1.694503586,9.95254615,-0.074121572,-0.1768073,-0.036042785,16.06683906,-21.15141253,-46.74068333
8.06E+12,0.1934967,1.7515259,13.102951,-0.047683716,-0.24279785,-0.084472656,15.6692505,-20.213318,-46.34857,-0.265555399,1.693789497,10.24992464,-0.068232242,-0.18999205,-0.038883819,16.02708021,-21.05760308,-46.70147199
8.06E+12,0.27368164,1.8010406,13.500504,-0.10671997,-0.16053772,-0.10699463,15.6692505,-20.213318,-46.34857,-0.219650189,1.699563138,10.53522727,-0.066177389,-0.19527263,-0.043442703,15.99129724,-20.97317457,-46.66618179
8.06E+12,0.2836609,1.7827759,14.009476,-0.18418884,-0.07055664,-0.12808228,15.725708,-19.822693,-45.751953,-0.170317006,1.709710884,10.83175494,-0.070231647,-0.191799139,-0.049797896,15.95909256,-20.89718891,-46.63442062
8.06E+12,0.1774292,1.7496033,14.494034,-0.26409912,0.01260376,-0.15370178,15.725708,-19.822693,-45.751953,-0.124919216,1.717017385,11.14952705,-0.081627366,-0.179674889,-0.057626334,15.93575411,-20.78973932,-46.54617385
8.06E+12,-0.008102417,1.7757874,15.103668,-0.32763672,0.07910156,-0.18185425,15.725708,-19.822693,-45.751953,-0.094684374,1.720275977,11.48397775,-0.099874542,-0.160447024,-0.067233879,15.9147495,-20.69303469,-46.46675177
8.06E+12,-0.22875977,1.7339783,15.530273,-0.3781433,0.13710022,-0.21424866,15.725708,-19.822693,-45.751953,-0.086026178,1.725827119,11.84594677,-0.12265076,-0.136492166,-0.078695916,15.89584535,-20.60600052,-46.39527189
8.06E+12,-0.41764832,1.585907,15.862183,-0.39631653,0.1639862,-0.23883057,16.230774,-20.83435,-48.2193,-0.100299538,1.726642237,12.21437939,-0.148200014,-0.109132927,-0.09225119,15.87883161,-20.52766977,-46.33094
8.06E+12,-0.5793762,1.3266449,15.934631,-0.37345886,0.15838623,-0.25335693,16.230774,-20.83435,-48.2193,-0.132034416,1.712568714,12.57915975,-0.173011665,-0.081821015,-0.106909128,15.91402585,-20.55833779,-46.519776
8.06E+12,-0.638443,1.1297302,15.877869,-0.3140564,0.12420654,-0.25543213,16.230774,-20.83435,-48.2193,-0.176768594,1.673976332,12.91470688,-0.193056385,-0.05780029,-0.121553908,15.94570067,-20.58593901,-46.6897284
8.06E+12,-0.6542511,1.0033264,15.751465,-0.3140564,0.12420654,-0.25543213,16.230774,-20.83435,-48.2193,-0.222936035,1.619551719,13.21102309,-0.205156386,-0.039599607,-0.134941731,15.974208,-20.61078011,-46.84268556
8.06E+12,-0.6839447,0.89250183,15.50444,-0.1394043,0.0052948,-0.22909546,15.258789,-19.789124,-47.97821,-0.266067541,1.557929187,13.46506728,-0.216046388,-0.023218992,-0.146990771,15.9998646,-20.6331371,-46.98034701
8.06E+12,-0.6458435,0.759079,15.128891,-0.04145813,-0.06599426,-0.19989014,15.258789,-19.789124,-47.97821,-0.307855257,1.491386451,13.66900455,-0.208382179,-0.020367613,-0.155201239,15.92575704,-20.54873579,-47.08013331
8.06E+12,-0.40971375,0.89878845,14.665924,0.041641235,-0.12937927,-0.16036987,15.258789,-19.789124,-47.97821,-0.341654081,1.418155706,13.8149932,-0.191689774,-0.024930278,-0.15967013,15.85906023,-20.47277461,-47.16994097
8.06E+12,-0.004226685,1.1001129,14.015564,0.112594604,-0.1915741,-0.12062073,14.866638,-19.308472,-47.595215,-0.348460048,1.366218981,13.90008628,-0.168356673,-0.035375177,-0.159740104,15.79903311,-20.40440955,-47.25076788
8.06E+12,0.3973236,1.3583221,13.398071,0.16365051,-0.2518921,-0.08760071,14.866638,-19.308472,-47.595215,-0.314036712,1.339608373,13.91163405,-0.140261545,-0.050995069,-0.155828166,15.7057936,-20.29481579,-47.28521259
8.06E+12,0.83114624,1.6367493,12.991974,0.18388367,-0.30775452,-0.0690155,14.866638,-19.308472,-47.595215,-0.242900681,1.341479745,13.86027775,-0.10987034,-0.071084772,-0.149005421,15.62187804,-20.19618142,-47.31621283
8.06E+12,1.2351837,1.9511261,12.893143,0.17074585,-0.35868835,-0.07485962,14.866638,-19.308472,-47.595215,-0.135495989,1.371006701,13.77344737,-0.080494939,-0.094751747,-0.141006429,15.54635404,-20.10741047,-47.34411305
8.06E+12,1.4337463,2.0842743,12.942871,0.1174469,-0.4076538,-0.111587524,15.005493,-19.447327,-48.539734,0.00157198,1.429018641,13.68541693,-0.05537086,-0.121145407,-0.134391748,15.47838243,-20.02751663,-47.36922324
8.06E+12,1.4552307,2.0234985,13.224091,0.039245605,-0.44673157,-0.17092896,15.005493,-19.447327,-48.539734,0.144789412,1.494544207,13.61116234,-0.038089084,-0.149796247,-0.132111325,15.43109349,-19.96949766,-47.48627432
8.06E+12,1.350357,1.8940277,13.647583,-0.05543518,-0.4693451,-0.25273132,15.005493,-19.447327,-48.539734,0.275833541,1.547439636,13.57245521,-0.030355615,-0.179489779,-0.135993089,15.38853344,-19.9172806,-47.59162029
8.06E+12,1.1789398,1.7369995,14.14241,-0.16119385,-0.46728516,-0.34458923,15.005493,-19.447327,-48.539734,0.383285887,1.582098442,13.57996799,-0.032863572,-0.208475311,-0.147666912,15.3502294,-19.87028524,-47.68643166
8.06E+12,0.9268646,1.580246,14.601227,-0.27085876,-0.43559265,-0.43385315,16.296387,-19.621277,-48.35968,0.462851278,1.597588548,13.63621219,-0.045696599,-0.234356296,-0.167359144,15.31575576,-19.82798941,-47.77176189
8.06E+12,0.5389252,1.2860107,15.092621,-0.37834167,-0.37841797,-0.51719666,16.296387,-19.621277,-48.35968,0.50925261,1.595854293,13.73271367,-0.068212815,-0.254479931,-0.194008544,15.41381888,-19.80731817,-47.8305537
8.06E+12,0.04725647,0.8787384,15.529999,-0.48143005,-0.30473328,-0.5988159,16.296387,-19.621277,-48.35968,0.512219869,1.564869934,13.8687044,-0.099225701,-0.266873735,-0.226327356,15.50207569,-19.78871406,-47.88346633
